# do not edit -- automatically generated Thu Aug 22 13:40:06 2019 from /susfu/kashyap/solar/ISSI/Capella_O7/binned_11t18.pro
# 
# events in wavelength region [11.00,18.00] Ang
# 
# BACKSCAL = 15.6250
#columns are:
#WLOW: wavelength grid bin lower bound [Angstrom]
#WHIGH: wavelength grid bin upper bound [Angstrom]
#SRCCT: counts in bin [ct]
#BKGCT: background counts in bin [ct]
#EA{p|n}_OBSID: effective area for each ObsID [cm^2 ksec]
WLOW	WHIGH	SRCCT	BKGCT	EAn_00055	EAn_08319	EAn_18358	EAn_18360	EAn_18362
N	N	N	N	N	N	N	N	N
11.0000	11.0050	74	3	1583.1608	1319.8882	140.33932	141.17670	130.60304
11.0050	11.0100	69	10	1581.8288	1318.0704	140.09558	140.93178	132.08146
11.0100	11.0150	68	4	1580.4998	1316.6828	139.85475	140.69001	133.79832
11.0150	11.0200	75	7	1579.1713	1315.2958	139.61401	140.44833	135.51452
11.0200	11.0250	67	5	1577.8459	1314.1942	139.37456	140.20742	136.29884
11.0250	11.0300	76	4	1576.5217	1313.2028	139.13563	139.96682	136.72341
11.0300	11.0350	46	7	1575.1988	1311.9388	138.89696	139.72668	137.11303
11.0350	11.0400	59	3	1573.8788	1309.7141	138.65893	139.48786	137.38010
11.0400	11.0450	44	5	1572.5593	1307.4902	138.42098	139.24913	137.64707
11.0450	11.0500	44	7	1571.2420	1305.7784	138.18264	139.01002	137.58039
11.0500	11.0550	42	2	1569.9264	1304.2652	137.94427	138.77089	137.38489
11.0550	11.0600	39	6	1568.6112	1302.5882	137.70594	138.53177	137.17987
11.0600	11.0650	38	4	1567.2998	1300.3384	137.46817	138.29310	136.94179
11.0650	11.0700	22	7	1565.9884	1298.0887	137.23039	138.05442	136.70371
11.0700	11.0750	18	0	1564.6485	1297.7521	136.99051	137.81423	136.46391
11.0750	11.0800	30	3	1563.2982	1298.1551	136.74994	137.57359	136.22357
11.0800	11.0850	21	2	1562.0239	1298.0392	136.51621	137.33970	135.98999
11.0850	11.0900	25	1	1561.0189	1296.0986	136.30694	137.13000	135.78058
11.0900	11.0950	24	3	1560.0135	1294.1573	136.09760	136.92022	135.57110
11.0950	11.1000	37	3	1558.9928	1291.5935	135.88607	136.70851	135.35990
11.1000	11.1050	29	2	1557.9659	1288.7885	135.67362	136.49598	135.14795
11.1050	11.1100	29	8	1556.9397	1286.4548	135.46102	136.28327	134.93567
11.1100	11.1150	33	3	1555.9159	1285.7793	135.24792	136.06996	134.72222
11.1150	11.1200	32	3	1554.8917	1285.1035	135.03473	135.85658	134.50868
11.1200	11.1250	46	4	1553.8700	1283.9216	134.82173	135.64348	134.29572
11.1250	11.1300	69	1	1552.8487	1282.5436	134.60868	135.43039	134.08286
11.1300	11.1350	51	5	1551.8285	1281.3081	134.39587	135.21764	133.87038
11.1350	11.1400	50	2	1550.8103	1280.5720	134.18357	135.00570	133.65885
11.1400	11.1450	53	3	1549.7924	1279.8362	133.97134	134.79384	133.44741
11.1450	11.1500	49	7	1548.7766	1277.9057	133.76034	134.58300	133.23667
11.1500	11.1550	54	5	1547.7615	1275.5133	133.54983	134.37256	133.02621
11.1550	11.1600	34	6	1546.7473	1273.1988	133.33957	134.16253	132.81611
11.1600	11.1650	29	6	1545.7351	1271.1564	133.12998	133.95376	132.60704
11.1650	11.1700	55	8	1544.7232	1269.1147	132.92047	133.74507	132.39805
11.1700	11.1750	37	7	1543.7133	1268.1663	132.71173	133.53726	132.18956
11.1750	11.1800	42	3	1542.7046	1267.6412	132.50341	133.32989	131.98139
11.1800	11.1850	38	4	1541.6963	1266.6338	132.29534	133.12263	131.77352
11.1850	11.1900	31	8	1540.6906	1263.9303	132.08850	132.91612	131.56707
11.1900	11.1950	29	4	1539.6849	1261.2269	131.88166	132.70960	131.36062
11.1950	11.2000	39	4	1538.6810	1260.0850	131.67509	132.50413	131.15445
11.2000	11.2050	33	4	1537.6783	1259.5478	131.46875	132.29916	130.94850
11.2050	11.2100	25	3	1536.6760	1258.5190	131.26263	132.09425	130.74274
11.2100	11.2150	20	6	1535.6764	1255.7591	131.05768	131.88994	130.53799
11.2150	11.2200	24	3	1534.6764	1252.9983	130.85265	131.68555	130.33317
11.2200	11.2250	29	2	1533.7166	1251.0364	130.65147	131.48462	130.13261
11.2250	11.2300	29	6	1532.7719	1249.3829	130.45172	131.28496	129.93365
11.2300	11.2350	40	4	1531.8355	1247.9272	130.25289	131.08621	129.73566
11.2350	11.2400	56	6	1530.9285	1247.1684	130.05731	130.89068	129.54116
11.2400	11.2450	56	6	1530.0210	1246.4093	129.86166	130.69509	129.34658
11.2450	11.2500	81	8	1529.1160	1243.9747	129.66696	130.50020	129.15316
11.2500	11.2550	77	6	1528.2113	1240.8905	129.47253	130.30549	128.96009
11.2550	11.2600	53	7	1527.3076	1238.4003	129.27836	130.11112	128.76730
11.2600	11.2650	54	2	1526.4054	1238.0010	129.08482	129.91761	128.57517
11.2650	11.2700	54	8	1525.5036	1237.6018	128.89134	129.72418	128.38311
11.2700	11.2750	42	6	1524.6442	1234.6684	128.70257	129.53502	128.19512
11.2750	11.2800	55	8	1523.8014	1230.7535	128.51562	129.34753	128.00871
11.2800	11.2850	42	5	1522.9623	1227.2925	128.32909	129.16064	127.82276
11.2850	11.2900	47	3	1522.1360	1225.4301	128.14382	128.97567	127.63822
11.2900	11.2950	48	3	1521.3100	1223.5685	127.95862	128.79077	127.45376
11.2950	11.3000	43	5	1520.4852	1222.2092	127.77433	128.60617	127.26956
11.3000	11.3050	47	5	1519.6613	1221.0451	127.59049	128.42179	127.08556
11.3050	11.3100	42	1	1518.8376	1219.2009	127.40671	128.23759	126.90172
11.3100	11.3150	63	3	1518.0159	1214.9611	127.22343	128.05433	126.71873
11.3150	11.3200	66	8	1517.1943	1210.7213	127.04016	127.87107	126.53574
11.3200	11.3250	83	13	1516.3738	1208.6775	126.85740	127.68834	126.35316
11.3250	11.3300	70	8	1515.5542	1207.4861	126.67494	127.50590	126.17082
11.3300	11.3350	70	10	1514.7347	1205.4685	126.49268	127.32358	125.98866
11.3350	11.3400	69	4	1513.9173	1200.5380	126.31145	127.14203	125.80747
11.3400	11.3450	51	5	1513.0995	1195.6057	126.13014	126.96040	125.62621
11.3450	11.3500	41	5	1512.2837	1192.6773	125.94930	126.77956	125.44563
11.3500	11.3550	46	7	1511.4683	1190.5238	125.76858	126.59896	125.26524
11.3550	11.3600	29	1	1510.6534	1188.2448	125.58814	126.41854	125.08511
11.3600	11.3650	27	3	1509.8402	1185.5232	125.40868	126.23875	124.90594
11.3650	11.3700	31	5	1509.0266	1182.8005	125.22915	126.05890	124.72670
11.3700	11.3750	24	2	1508.2149	1175.6659	125.04943	125.87901	124.54730
11.3750	11.3800	20	3	1507.4035	1166.8169	124.86954	125.69901	124.36775
11.3800	11.3850	27	3	1506.5929	1158.8097	124.68979	125.51916	124.18827
11.3850	11.3900	35	2	1505.7838	1153.7633	124.51027	125.33950	124.00872
11.3900	11.3950	34	4	1504.9749	1148.7189	124.33082	125.15990	123.82923
11.3950	11.4000	33	5	1504.1675	1135.5194	124.15280	124.98160	123.65131
11.4000	11.4050	30	3	1503.3608	1119.1580	123.97535	124.80380	123.47401
11.4050	11.4100	41	8	1502.5546	1104.5502	123.79831	124.62653	123.29717
11.4100	11.4150	44	9	1501.7498	1096.1326	123.62251	124.45091	123.12180
11.4150	11.4200	40	4	1500.9452	1087.7181	123.44679	124.27536	122.94650
11.4200	11.4250	62	2	1500.1419	1081.5598	123.27202	124.10038	122.77176
11.4250	11.4300	58	12	1499.3395	1076.2803	123.09771	123.92572	122.59734
11.4300	11.4350	74	10	1498.5372	1072.9799	122.92345	123.75119	122.42306
11.4350	11.4400	69	6	1497.7366	1076.6749	122.74965	123.57748	122.24960
11.4400	11.4450	73	7	1496.9360	1080.3699	122.57585	123.40376	122.07613
11.4450	11.4500	54	6	1496.1367	1088.4736	122.40318	123.23063	121.90319
11.4500	11.4550	61	4	1495.3382	1098.2847	122.23105	123.05781	121.73055
11.4550	11.4600	63	7	1494.5400	1108.2587	122.05900	122.88511	121.55810
11.4600	11.4650	55	5	1493.7436	1118.7908	121.88755	122.71311	121.38660
11.4650	11.4700	47	7	1492.9469	1129.3270	121.71604	122.54105	121.21503
11.4700	11.4750	41	2	1492.1490	1144.0529	121.54486	122.36953	121.04384
11.4750	11.4800	38	6	1491.3504	1160.4088	121.37376	122.19817	120.87274
11.4800	11.4850	38	1	1490.5440	1176.8497	121.20231	122.02619	120.70107
11.4850	11.4900	64	6	1489.7101	1193.5884	121.02967	121.85203	120.52743
11.4900	11.4950	40	2	1488.8759	1210.3336	120.85695	121.67780	120.35373
11.4950	11.5000	54	4	1488.0881	1226.6513	120.68818	121.50822	120.18443
11.5000	11.5050	60	2	1487.3179	1242.8118	120.52083	121.34035	120.01677
11.5050	11.5100	57	8	1486.5671	1257.1792	120.35546	121.17429	119.85092
11.5100	11.5150	51	8	1485.8836	1265.2209	120.19677	121.01435	119.69123
11.5150	11.5200	106	8	1485.2005	1273.2595	120.03814	120.85448	119.53160
11.5200	11.5250	62	8	1484.5184	1275.5520	119.88006	120.69534	119.37272
11.5250	11.5300	107	8	1483.8368	1275.6111	119.72221	120.53651	119.21414
11.5300	11.5350	75	13	1483.1557	1275.4568	119.56457	120.37789	119.05575
11.5350	11.5400	114	6	1482.4754	1274.5459	119.40751	120.21992	118.89786
11.5400	11.5450	111	3	1481.7955	1273.6353	119.25052	120.06201	118.74003
11.5450	11.5500	91	11	1481.1165	1272.7915	119.09401	119.90445	118.58280
11.5500	11.5550	73	3	1480.4382	1271.9741	118.93776	119.74711	118.42590
11.5550	11.5600	63	5	1479.7600	1271.1257	118.78161	119.58989	118.26904
11.5600	11.5650	56	4	1479.0832	1270.1692	118.62602	119.43334	118.11261
11.5650	11.5700	50	5	1478.4063	1269.2127	118.47044	119.27680	117.95618
11.5700	11.5750	61	4	1477.7303	1268.3604	118.31546	119.12079	117.80039
11.5750	11.5800	41	3	1477.0549	1267.5489	118.16078	118.96507	117.64494
11.5800	11.5850	55	6	1476.3797	1266.7179	118.00622	118.80941	117.48958
11.5850	11.5900	30	8	1475.7058	1265.8186	117.85231	118.65424	117.33484
11.5900	11.5950	45	5	1475.0318	1264.9191	117.69834	118.49901	117.18004
11.5950	11.6000	35	6	1474.3591	1264.0530	117.54521	118.34511	117.02603
11.6000	11.6050	27	6	1473.6867	1263.1996	117.39235	118.19167	116.87227
11.6050	11.6100	30	3	1473.0146	1262.3444	117.23971	118.03836	116.71879
11.6100	11.6150	25	0	1472.3437	1261.4823	117.08792	117.88554	116.56634
11.6150	11.6200	22	4	1471.6726	1260.6199	116.93606	117.73266	116.41383
11.6200	11.6250	36	1	1471.0029	1259.7515	116.78486	117.58117	116.26176
11.6250	11.6300	25	3	1470.3334	1258.8802	116.63383	117.43014	116.10978
11.6300	11.6350	30	6	1469.6645	1258.0233	116.48305	117.27915	115.95804
11.6350	11.6400	25	2	1468.9965	1257.2158	116.33291	117.12807	115.80685
11.6400	11.6450	15	3	1468.3288	1256.4087	116.18283	116.97704	115.65573
11.6450	11.6500	20	2	1467.6620	1255.5591	116.03316	116.82681	115.50528
11.6500	11.6550	32	3	1466.9956	1254.6930	115.88367	116.67691	115.35510
11.6550	11.6600	16	4	1466.3297	1253.8302	115.73437	116.52726	115.20502
11.6600	11.6650	25	3	1465.6646	1252.9777	115.58562	116.37836	115.05511
11.6650	11.6700	15	3	1464.9998	1252.1255	115.43693	116.22951	114.90526
11.6700	11.6750	22	8	1464.3359	1251.2854	115.28872	116.08126	114.75636
11.6750	11.6800	27	5	1463.6726	1250.4504	115.14079	115.93331	114.60790
11.6800	11.6850	19	4	1463.0094	1249.6102	114.99291	115.78547	114.45968
11.6850	11.6900	18	3	1462.3476	1248.7534	114.84551	115.63830	114.31258
11.6900	11.6950	15	3	1461.6859	1247.8966	114.69811	115.49113	114.16548
11.6950	11.7000	28	3	1461.0179	1247.0206	114.54786	115.34068	114.01485
11.7000	11.7050	31	3	1460.3479	1246.1376	114.39658	115.18903	113.86291
11.7050	11.7100	26	3	1459.6766	1245.2471	114.24361	115.03578	113.70952
11.7100	11.7150	33	5	1459.0022	1244.3314	114.08491	114.87715	113.55123
11.7150	11.7200	39	2	1458.3275	1243.4153	113.92615	114.71846	113.39288
11.7200	11.7250	41	7	1457.6490	1242.4966	113.76781	114.55998	113.23460
11.7250	11.7300	42	3	1456.9688	1241.5766	113.60957	114.40154	113.07629
11.7300	11.7350	54	5	1456.2687	1240.6403	113.44993	114.24165	112.91664
11.7350	11.7400	68	14	1455.4987	1239.6462	113.28535	114.07672	112.75225
11.7400	11.7450	63	7	1454.7283	1238.6517	113.12071	113.91172	112.58780
11.7450	11.7500	69	6	1453.9595	1237.6592	112.95668	113.74760	112.42403
11.7500	11.7550	77	7	1453.1908	1236.6671	112.79280	113.58373	112.26045
11.7550	11.7600	64	7	1452.4227	1235.6751	112.62927	113.42008	112.09710
11.7600	11.7650	77	9	1451.6557	1234.6820	112.46665	113.25695	111.93433
11.7650	11.7700	72	5	1450.8890	1233.6893	112.30409	113.09388	111.77161
11.7700	11.7750	87	6	1450.1236	1232.6984	112.14193	112.93151	111.60953
11.7750	11.7800	75	8	1449.3587	1231.7082	111.97993	112.76942	111.44771
11.7800	11.7850	77	10	1448.5942	1230.7189	111.81815	112.60749	111.28612
11.7850	11.7900	78	2	1447.8307	1229.7315	111.65698	112.44592	111.12516
11.7900	11.7950	57	10	1447.0674	1228.7446	111.49587	112.28442	110.96427
11.7950	11.8000	60	7	1446.3053	1227.7573	111.33515	112.12336	110.80358
11.8000	11.8050	49	5	1445.5439	1226.7705	111.17465	111.96257	110.64305
11.8050	11.8100	44	3	1444.7826	1225.7832	111.01421	111.80182	110.48261
11.8100	11.8150	48	3	1444.0229	1224.7961	110.85420	111.64151	110.32273
11.8150	11.8200	37	3	1443.2632	1223.8089	110.69420	111.48120	110.16285
11.8200	11.8250	49	1	1442.5045	1222.8236	110.53475	111.32141	110.00350
11.8250	11.8300	45	3	1441.7466	1221.8394	110.37560	111.16190	109.84444
11.8300	11.8350	46	2	1440.9888	1220.8557	110.21654	111.00252	109.68550
11.8350	11.8400	58	8	1440.2326	1219.8756	110.05805	110.84384	109.52723
11.8400	11.8450	42	4	1439.4761	1218.8951	109.89949	110.68511	109.36890
11.8450	11.8500	35	4	1438.7213	1217.9174	109.74179	110.52701	109.21117
11.8500	11.8550	38	6	1437.9669	1216.9404	109.58435	110.36910	109.05362
11.8550	11.8600	29	6	1437.2127	1215.9633	109.42651	110.21082	108.89576
11.8600	11.8650	36	5	1436.4593	1214.9862	109.26726	110.05130	108.73682
11.8650	11.8700	36	8	1435.7056	1214.0088	109.10795	109.89171	108.57782
11.8700	11.8750	21	7	1434.9533	1213.0335	108.94885	109.73259	108.41910
11.8750	11.8800	35	4	1434.2011	1212.0586	108.78975	109.57356	108.26042
11.8800	11.8850	37	2	1433.4495	1211.0847	108.63097	109.41475	108.10200
11.8850	11.8900	34	4	1432.6990	1210.1132	108.47305	109.25645	107.94424
11.8900	11.8950	38	5	1431.9487	1209.1421	108.31519	109.09821	107.78654
11.8950	11.9000	35	4	1431.1995	1208.1686	108.15704	108.94022	107.62895
11.9000	11.9050	34	4	1430.4507	1207.1943	107.99878	108.78234	107.47141
11.9050	11.9100	29	10	1429.7024	1206.2194	107.84074	108.62452	107.31395
11.9100	11.9150	32	7	1428.9552	1205.2412	107.68330	108.46672	107.15657
11.9150	11.9200	34	3	1428.2083	1204.2633	107.52593	108.30899	106.99926
11.9200	11.9250	37	3	1427.4367	1203.2658	107.36676	108.14992	106.84069
11.9250	11.9300	44	3	1426.6558	1202.2610	107.20698	107.99041	106.68172
11.9300	11.9350	39	5	1425.8727	1201.2549	107.04509	107.83087	106.52268
11.9350	11.9400	42	4	1425.0835	1200.2455	106.87596	107.67153	106.36365
11.9400	11.9450	41	6	1424.2943	1199.2361	106.70682	107.51219	106.20463
11.9450	11.9500	30	5	1423.5060	1198.2287	106.50863	107.35327	106.04623
11.9500	11.9550	43	3	1422.7186	1197.2226	106.29919	107.19460	105.88816
11.9550	11.9600	49	2	1421.9312	1196.2169	106.06897	107.03608	105.73019
11.9600	11.9650	42	1	1421.1455	1195.2140	105.76509	106.87834	105.57286
11.9650	11.9700	36	3	1420.3596	1194.2108	105.46110	106.72055	105.41547
11.9700	11.9750	34	5	1419.5752	1193.2106	104.84205	106.56331	105.25879
11.9750	11.9800	32	2	1418.7913	1192.2114	104.09975	106.40624	105.10235
11.9800	11.9850	35	3	1418.0078	1191.2129	103.33889	106.24939	104.94606
11.9850	11.9900	52	1	1417.2261	1190.2173	102.51195	106.09337	104.79036
11.9900	11.9950	31	5	1416.4441	1189.2214	101.68470	105.93729	104.63461
11.9950	12.0000	31	0	1415.6638	1188.2316	100.52156	105.78217	104.47997
12.0000	12.0050	35	3	1414.8837	1187.2437	99.226546	105.62735	104.32568
12.0050	12.0100	27	7	1414.1043	1186.2581	97.998855	105.47287	104.17167
12.0100	12.0150	19	4	1413.3260	1185.2789	97.009113	105.31931	104.01839
12.0150	12.0200	20	2	1412.5480	1184.3002	96.019748	105.16581	103.86517
12.0200	12.0250	24	1	1411.7709	1183.3236	95.045445	105.01317	103.71269
12.0250	12.0300	28	3	1410.9944	1182.3480	94.077101	104.86088	103.56052
12.0300	12.0350	21	1	1410.2184	1181.3734	93.043556	104.70858	103.40850
12.0350	12.0400	26	4	1409.4437	1180.4014	91.776069	104.55610	103.25689
12.0400	12.0450	29	8	1408.6692	1179.4297	90.509066	104.40367	103.10533
12.0450	12.0500	21	8	1407.8958	1178.4594	89.738665	104.25207	102.95449
12.0500	12.0550	37	6	1407.1232	1177.4902	89.162888	104.10086	102.80401
12.0550	12.0600	37	5	1406.3508	1176.5217	88.570244	103.94975	102.65366
12.0600	12.0650	40	2	1405.5797	1175.5558	87.917779	103.79902	102.50387
12.0650	12.0700	35	2	1404.8088	1174.5902	87.265438	103.64833	102.35411
12.0700	12.0750	32	1	1404.0390	1173.6266	87.586759	103.49803	102.20496
12.0750	12.0800	48	6	1403.2700	1172.6643	88.288993	103.34798	102.05612
12.0800	12.0850	44	7	1402.5012	1171.7023	88.844134	103.19808	101.90738
12.0850	12.0900	66	8	1401.7339	1170.7430	88.873169	103.04901	101.75928
12.0900	12.0950	75	11	1400.9664	1169.7834	88.902215	102.89988	101.61112
12.0950	12.1000	127	10	1400.2004	1168.8272	89.011937	102.75137	101.46370
12.1000	12.1050	131	11	1399.4347	1167.8720	89.153245	102.60305	101.31652
12.1050	12.1100	154	7	1398.6695	1166.9180	89.325186	102.45496	101.16946
12.1100	12.1150	215	20	1397.9060	1165.9685	89.606465	102.30773	101.02285
12.1150	12.1200	291	16	1397.1423	1165.0186	89.887850	102.16044	100.87619
12.1200	12.1250	372	27	1396.3800	1164.0716	89.848803	101.96130	100.72985
12.1250	12.1300	353	33	1395.6179	1163.1252	89.684309	101.74175	100.58356
12.1300	12.1350	425	27	1394.8777	1162.1983	89.679525	101.47419	100.43907
12.1350	12.1400	384	39	1394.2143	1161.3394	90.245497	101.03454	100.30080
12.1400	12.1450	394	30	1393.5513	1160.4809	90.811253	100.59506	100.16258
12.1450	12.1500	363	20	1392.8965	1159.6301	90.847287	99.750627	100.02545
12.1500	12.1550	278	21	1392.2450	1158.7825	90.675826	98.747641	99.888752
12.1550	12.1600	235	13	1391.5939	1157.9355	90.656611	97.746484	99.752200
12.1600	12.1650	171	13	1390.9433	1157.0897	91.181945	96.750803	99.616015
12.1650	12.1700	147	19	1390.2930	1156.2442	91.707079	95.755503	99.479883
12.1700	12.1750	115	13	1389.6431	1155.4000	91.754451	94.215643	99.343753
12.1750	12.1800	91	10	1388.9935	1154.5568	91.614705	92.463347	99.207697
12.1800	12.1850	101	8	1388.3441	1153.7134	91.451074	90.850853	99.071275
12.1850	12.1900	79	8	1387.6951	1152.8702	91.202083	89.739730	98.933636
12.1900	12.1950	79	5	1387.0462	1152.0271	90.953140	88.628819	98.796023
12.1950	12.2000	58	6	1386.3981	1151.1882	91.073735	87.505473	98.659158
12.2000	12.2050	70	6	1385.7505	1150.3513	91.339141	86.377847	98.522658
12.2050	12.2100	42	11	1385.1030	1149.5153	91.477120	85.341396	98.363765
12.2100	12.2150	54	6	1384.4567	1148.6840	91.159196	84.632784	98.125077
12.2150	12.2200	58	8	1383.8102	1147.8524	90.841151	83.923900	97.886298
12.2200	12.2250	43	5	1383.1647	1147.0230	90.874768	83.445028	97.055778
12.2250	12.2300	57	8	1382.5193	1146.1940	91.046149	83.056092	95.993179
12.2300	12.2350	60	2	1381.8743	1145.3657	91.179246	82.785807	94.730491
12.2350	12.2400	70	12	1381.2305	1144.5395	91.175320	82.940157	92.752040
12.2400	12.2450	82	10	1380.5865	1143.7130	91.171391	83.094565	90.772834
12.2450	12.2500	93	13	1379.9435	1142.8882	90.890029	83.579043	89.247633
12.2500	12.2550	105	15	1379.3006	1142.0637	90.499778	84.193147	87.899567
12.2550	12.2600	123	8	1378.6583	1141.2402	90.216237	84.667529	86.548811
12.2600	12.2650	166	13	1378.0167	1140.4184	90.314191	84.642577	85.186064
12.2650	12.2700	169	12	1377.3754	1139.5970	90.412107	84.617635	83.823836
12.2700	12.2750	212	13	1376.7348	1138.7771	90.206296	85.193069	82.854308
12.2750	12.2800	184	10	1376.0945	1137.9579	89.881364	86.003959	82.038888
12.2800	12.2850	186	17	1375.4542	1137.1391	89.670924	86.682775	81.219489
12.2850	12.2900	184	13	1374.8134	1136.3208	89.870779	86.888761	80.384945
12.2900	12.2950	161	12	1374.1727	1135.5028	90.070557	87.094668	79.550719
12.2950	12.3000	129	8	1373.4840	1134.6440	90.106528	87.126810	79.127014
12.3000	12.3050	136	5	1372.7767	1133.7697	90.078211	87.090758	78.864602
12.3050	12.3100	104	9	1372.0695	1132.8950	89.989912	87.103035	78.783003
12.3100	12.3150	85	6	1371.3633	1132.0201	89.686778	87.288451	79.349241
12.3150	12.3200	68	11	1370.6573	1131.1453	89.383702	87.473831	79.915370
12.3200	12.3250	54	6	1369.9518	1130.2722	89.275823	87.448705	80.626833
12.3250	12.3300	56	7	1369.2470	1129.4003	89.244636	87.340945	81.394977
12.3300	12.3350	57	7	1368.5422	1128.5287	89.163450	87.366408	82.169865
12.3350	12.3400	50	3	1367.8389	1127.6594	88.903223	87.869247	82.967565
12.3400	12.3450	35	3	1367.1353	1126.7897	88.642897	88.372277	83.765569
12.3450	12.3500	44	4	1366.4328	1125.9221	88.728212	88.310364	84.430397
12.3500	12.3550	44	6	1365.7306	1125.0550	88.949148	88.026807	85.043207
12.3550	12.3600	31	6	1365.0287	1124.1884	89.046409	87.816527	85.497031
12.3600	12.3650	31	3	1364.3280	1123.3243	88.700551	87.868824	85.381155
12.3650	12.3700	45	6	1363.6270	1122.4597	88.354561	87.921141	85.265235
12.3700	12.3750	58	5	1362.9273	1121.5974	88.306591	87.830467	85.360467
12.3750	12.3800	43	0	1362.2277	1120.7354	88.375549	87.683629	85.538614
12.3800	12.3850	54	6	1361.5286	1119.8744	88.434153	87.585355	85.682852
12.3850	12.3900	48	5	1360.8303	1119.0150	88.455726	87.661047	85.705746
12.3900	12.3950	62	2	1360.1323	1118.1560	88.477292	87.736710	85.728631
12.3950	12.4000	75	4	1359.4752	1117.3194	88.203525	87.944440	85.738312
12.4000	12.4050	87	3	1358.8342	1116.4917	87.813748	88.204040	85.742804
12.4050	12.4100	89	6	1358.2008	1115.6670	87.535967	88.369576	85.725966
12.4100	12.4150	65	13	1357.5941	1114.8522	87.660117	88.197469	85.632504
12.4150	12.4200	80	16	1356.9876	1114.0376	87.784219	88.025426	85.539077
12.4200	12.4250	104	10	1356.3809	1113.2189	87.528958	87.872954	85.431547
12.4250	12.4300	94	6	1355.7744	1112.3991	87.124773	87.728252	85.318532
12.4300	12.4350	89	10	1355.1662	1111.5658	86.809114	87.601372	85.217656
12.4350	12.4400	111	14	1354.5523	1110.6845	86.811525	87.538569	85.160429
12.4400	12.4450	102	7	1353.9386	1109.8034	86.813936	87.475779	85.103213
12.4450	12.4500	89	7	1353.3254	1108.9240	86.212034	87.332980	85.067269
12.4500	12.4550	71	5	1352.7128	1108.0457	85.372833	87.158797	85.039708
12.4550	12.4600	62	13	1352.1000	1107.1676	84.430338	87.013608	84.972014
12.4600	12.4650	58	4	1351.4882	1106.2917	83.118822	86.972719	84.760418
12.4650	12.4700	56	6	1350.8760	1105.4155	81.806806	86.931814	84.548741
12.4700	12.4750	54	8	1350.2649	1104.5418	81.112185	86.857967	84.533865
12.4750	12.4800	53	5	1349.6539	1103.6686	80.659881	86.771153	84.596302
12.4800	12.4850	51	4	1349.0431	1102.7960	79.962716	86.675546	84.607072
12.4850	12.4900	68	3	1348.4332	1101.9253	78.386156	86.548369	84.432261
12.4900	12.4950	39	6	1347.8231	1101.0542	76.808994	86.421143	84.257384
12.4950	12.5000	43	3	1347.2139	1100.1996	76.036750	86.243368	84.248773
12.5000	12.5050	48	4	1346.6046	1099.3510	75.580630	86.045619	84.305543
12.5050	12.5100	59	6	1345.9959	1098.5074	74.953469	85.852195	84.312094
12.5100	12.5150	50	2	1345.3877	1097.6806	73.710422	85.673982	84.138153
12.5150	12.5200	41	3	1344.7798	1096.8541	72.467850	85.495836	83.964279
12.5200	12.5250	51	5	1344.1607	1096.0196	71.516211	85.476702	83.867491
12.5250	12.5300	55	6	1343.5373	1095.1819	70.679164	85.520162	83.801053
12.5300	12.5350	43	4	1342.9120	1094.3431	69.954868	85.523392	83.747413
12.5350	12.5400	41	5	1342.2790	1093.4994	69.635596	85.381836	83.739778
12.5400	12.5450	39	4	1341.6463	1092.6560	69.316445	85.240334	83.732146
12.5450	12.5500	35	4	1341.0140	1091.8138	68.412411	85.112774	83.615092
12.5500	12.5550	51	3	1340.3822	1090.9725	67.278580	84.990772	83.455019
12.5550	12.5600	52	3	1339.7505	1090.1317	66.355559	84.848577	83.339828
12.5600	12.5650	60	7	1339.1199	1089.2931	66.191805	84.633815	83.386234
12.5650	12.5700	66	6	1338.4893	1088.4546	66.028083	84.419095	83.432631
12.5700	12.5750	51	4	1337.8592	1087.6172	65.319429	84.340557	83.286268
12.5750	12.5800	55	5	1337.2296	1086.7807	64.396500	84.315704	83.064054
12.5800	12.5850	57	9	1336.5999	1085.9444	63.728790	84.287294	82.895286
12.5850	12.5900	51	4	1335.9715	1085.1104	63.980307	84.246138	82.919070
12.5900	12.5950	60	8	1335.3429	1084.2760	64.231920	84.204967	82.942862
12.5950	12.6000	45	6	1334.7152	1083.4432	64.714327	83.993930	82.848936
12.6000	12.6050	54	8	1334.0877	1082.6106	65.287743	83.715958	82.708640
12.6050	12.6100	46	1	1333.4604	1081.7781	65.650909	83.409821	82.572364
12.6100	12.6150	40	5	1332.8340	1080.9460	65.257505	83.002402	82.450579
12.6150	12.6200	40	6	1332.2074	1080.1136	64.863951	82.594828	82.328747
12.6200	12.6250	53	3	1331.5816	1079.2833	65.198042	81.359510	82.275037
12.6250	12.6300	37	3	1330.9556	1078.4533	65.818842	79.797587	82.248124
12.6300	12.6350	47	3	1330.3300	1077.6235	66.194228	78.403396	82.169365
12.6350	12.6400	44	5	1329.7043	1076.7926	65.686846	77.610553	81.903833
12.6400	12.6450	56	3	1329.0787	1075.9621	65.179659	76.818012	81.638403
12.6450	12.6500	45	6	1328.4572	1075.1366	65.251164	75.889542	81.533605
12.6500	12.6550	54	5	1327.8374	1074.3132	65.550726	74.907573	81.492120
12.6550	12.6600	62	4	1327.2195	1073.4919	65.521721	73.791968	81.415906
12.6600	12.6650	52	6	1326.6081	1072.6773	64.308547	72.193556	81.214448
12.6650	12.6700	58	4	1325.9969	1071.8630	63.095836	70.595753	81.013067
12.6700	12.6750	41	6	1325.3849	1071.0391	62.036742	69.885653	80.894920
12.6750	12.6800	39	8	1324.7728	1070.2118	61.038762	69.525827	80.809644
12.6800	12.6850	42	4	1324.1603	1069.3788	60.167732	69.004308	80.627282
12.6850	12.6900	48	4	1323.5465	1068.5256	59.754979	67.900216	80.095038
12.6900	12.6950	35	3	1322.9328	1067.6726	59.342305	66.796336	79.562896
12.6950	12.7000	40	4	1322.3196	1065.7117	58.647284	66.236189	78.352804
12.7000	12.7050	33	1	1321.7070	1063.3148	57.841243	65.890851	76.875894
12.7050	12.7100	39	1	1321.0943	1060.1815	57.251056	65.444694	75.400873
12.7100	12.7150	20	1	1320.4826	1054.4010	57.439505	64.636128	73.935246
12.7150	12.7200	25	4	1319.8706	1048.6182	57.628027	63.827252	72.469060
12.7200	12.7250	31	6	1319.2597	1035.8438	57.246596	62.930944	71.168072
12.7250	12.7300	24	2	1318.6490	1020.3093	56.640388	61.999868	69.931751
12.7300	12.7350	23	2	1318.0385	1004.8835	56.216641	61.223411	68.754874
12.7350	12.7400	23	3	1317.4292	989.85262	56.450941	61.004674	67.792578
12.7400	12.7450	32	2	1316.8196	974.81596	56.685331	60.785853	66.829914
12.7450	12.7500	46	5	1316.2108	960.65230	56.965054	60.460736	66.193872
12.7500	12.7550	37	4	1315.6019	946.82557	57.262814	60.093504	65.686370
12.7550	12.7600	39	5	1314.9934	933.42861	57.498337	60.002179	65.122406
12.7600	12.7650	39	5	1314.3856	921.55859	57.509739	60.906118	64.353746
12.7650	12.7700	33	3	1313.7780	909.69310	57.521136	61.809711	63.585379
12.7700	12.7750	30	4	1313.2067	899.92187	57.865451	62.045633	62.929242
12.7750	12.7800	39	2	1312.6499	890.97819	58.341175	62.017941	62.317461
12.7800	12.7850	44	2	1312.1150	882.71357	58.689081	62.059339	61.700302
12.7850	12.7900	60	10	1311.6587	876.89240	58.575767	62.350281	61.063057
12.7900	12.7950	48	6	1311.2027	871.07346	58.462496	62.641112	60.426055
12.7950	12.8000	75	12	1310.7476	871.79627	58.617367	63.144881	59.892472
12.8000	12.8050	79	5	1310.2931	875.10158	58.878026	63.732455	59.400005
12.8050	12.8100	110	9	1309.8386	878.62051	59.053971	64.012009	58.928417
12.8100	12.8150	105	14	1309.3843	882.90838	58.923890	63.179091	58.532552
12.8150	12.8200	116	12	1308.9301	887.19544	58.793833	62.346331	58.136762
12.8200	12.8250	130	12	1308.4761	897.12236	58.486368	61.845806	57.952973
12.8250	12.8300	153	17	1308.0223	909.27229	58.108974	61.476812	57.853041
12.8300	12.8350	144	16	1307.5684	919.79027	57.890667	60.887393	57.915946
12.8350	12.8400	158	9	1307.1150	924.39658	58.247226	59.503034	58.566766
12.8400	12.8450	166	12	1306.6613	929.00465	58.603922	58.118146	59.217835
12.8450	12.8500	142	14	1306.2081	931.37917	58.602017	57.300550	60.056820
12.8500	12.8550	138	11	1305.7548	932.87250	58.458504	56.706690	60.970298
12.8550	12.8600	124	8	1305.2871	934.94740	58.291097	56.082169	61.800580
12.8600	12.8650	114	9	1304.7678	939.12262	58.037416	55.347014	62.330197
12.8650	12.8700	99	8	1304.2482	943.29942	57.783638	54.611579	62.860017
12.8700	12.8750	87	5	1303.7126	944.34053	57.295167	54.147215	63.298142
12.8750	12.8800	66	6	1303.1702	944.14320	56.713702	53.789711	63.700269
12.8800	12.8850	61	3	1302.6282	944.56105	56.096548	53.482303	63.784797
12.8850	12.8900	60	7	1302.0865	947.20288	55.349328	53.355395	62.721681
12.8900	12.8950	49	4	1301.5450	949.84370	54.602392	53.228536	61.658969
12.8950	12.9000	69	7	1301.0035	950.67859	54.515099	53.210072	60.527029
12.9000	12.9050	63	5	1300.4621	950.79962	54.688540	53.234454	59.367811
12.9050	12.9100	57	13	1299.9191	950.79844	54.794726	53.418674	58.209577
12.9100	12.9150	61	5	1299.3700	950.35523	54.657750	54.181267	57.053662
12.9150	12.9200	77	7	1298.8211	949.91219	54.520826	54.943569	55.898188
12.9200	12.9250	83	9	1298.2590	950.26002	54.983822	55.334313	54.961439
12.9250	12.9300	85	9	1297.6922	950.92045	55.683833	55.577903	54.111692
12.9300	12.9350	72	8	1297.1252	951.34666	56.255452	55.885045	53.312807
12.9350	12.9400	76	6	1296.5584	950.92514	56.362136	56.421922	52.698507
12.9400	12.9450	78	7	1295.9918	950.50370	56.468799	56.958697	52.084324
12.9450	12.9500	84	5	1295.4249	951.03318	56.803781	57.128295	51.447997
12.9500	12.9550	65	8	1294.8582	951.93873	57.228946	57.152483	50.803245
12.9550	12.9600	66	6	1294.2914	952.69253	57.817184	57.149907	50.249271
12.9600	12.9650	73	7	1293.7254	952.89605	58.994311	57.050512	50.024672
12.9650	12.9700	55	5	1293.1591	953.09966	60.171887	56.951079	49.799986
12.9700	12.9750	58	9	1292.5933	952.78509	60.806062	57.160135	50.185169
12.9750	12.9800	60	9	1292.0276	952.26552	61.225581	57.491244	50.811640
12.9800	12.9850	59	9	1291.4619	951.71770	61.765847	57.683205	51.461662
12.9850	12.9900	67	4	1290.8969	951.06779	62.743046	57.371489	52.196809
12.9900	12.9950	49	7	1290.3316	950.41762	63.720618	57.059655	52.932236
12.9950	13.0000	54	4	1289.7669	949.92451	64.003153	57.135505	53.584608
13.0000	13.0050	58	6	1289.2021	949.49329	64.010730	57.364849	54.204453
13.0050	13.0100	52	7	1288.6377	949.34822	64.127631	57.538083	54.765383
13.0100	13.0150	45	3	1288.0736	950.23918	64.640631	57.508391	55.113832
13.0150	13.0200	43	9	1287.5095	951.13014	65.153632	57.478699	55.462281
13.0200	13.0250	53	7	1286.9459	950.77162	65.141219	57.218712	55.587983
13.0250	13.0300	52	8	1286.3824	949.91827	64.920723	56.867520	55.625469
13.0300	13.0350	45	11	1285.8191	949.14395	64.727542	56.470720	55.618919
13.0350	13.0400	57	6	1285.2556	948.65528	64.633164	55.908173	55.452744
13.0400	13.0450	54	3	1284.6924	948.16679	64.538822	55.345841	55.286632
13.0450	13.0500	62	8	1284.1360	947.35980	64.647448	54.679220	55.273271
13.0500	13.0550	55	11	1283.5826	946.42711	64.836401	53.971652	55.320414
13.0550	13.0600	67	8	1283.0319	945.59663	64.930164	53.407490	55.325307
13.0600	13.0650	48	3	1282.4913	945.13727	64.678782	53.363595	55.177031
13.0650	13.0700	59	5	1281.9508	944.67791	64.427401	53.319700	55.028755
13.0700	13.0750	54	5	1281.4107	945.49625	64.359868	52.954507	54.872701
13.0750	13.0800	54	9	1280.8708	946.82046	64.365160	52.462138	54.713598
13.0800	13.0850	50	6	1280.3309	947.42098	64.303888	52.082562	54.514129
13.0850	13.0900	53	3	1279.7915	945.39755	64.001477	52.112451	54.168712
13.0900	13.0950	55	5	1279.2519	943.37335	63.698951	52.142352	53.823165
13.0950	13.1000	33	5	1278.7127	942.57900	63.665611	52.722920	53.421139
13.1000	13.1050	53	8	1278.1736	942.27151	63.738883	53.521803	52.996606
13.1050	13.1100	55	3	1277.6345	941.95564	63.767859	54.182903	52.563273
13.1100	13.1150	51	6	1277.0959	941.60946	63.636196	54.344229	52.098113
13.1150	13.1200	49	5	1276.5571	941.26314	63.504483	54.505617	51.632775
13.1200	13.1250	45	4	1276.0189	940.63345	63.325804	55.406495	51.247906
13.1250	13.1300	51	6	1275.4807	939.89109	63.128411	56.601019	50.894734
13.1300	13.1350	47	7	1274.9427	939.37975	62.972911	57.680674	50.498497
13.1350	13.1400	44	4	1274.4048	939.70561	62.969116	58.345376	49.945429
13.1400	13.1450	64	8	1273.8670	940.03147	62.965322	59.010077	49.392362
13.1450	13.1500	46	6	1273.3295	938.54638	62.762628	59.805750	49.567109
13.1500	13.1550	46	4	1272.7923	936.34325	62.481071	60.653354	50.030435
13.1550	13.1600	47	6	1272.2553	934.51626	62.237844	61.422307	50.450425
13.1600	13.1650	73	9	1271.7183	934.05327	62.133557	61.906462	50.713487
13.1650	13.1700	54	7	1271.1816	933.59046	62.029310	62.390432	50.976449
13.1700	13.1750	46	6	1270.6452	931.09507	62.063420	62.573466	51.627543
13.1750	13.1800	48	1	1270.1091	927.79465	62.152401	62.637014	52.432270
13.1800	13.1850	40	5	1269.5700	922.98121	62.125291	62.719843	53.247975
13.1850	13.1900	44	4	1269.0200	912.67590	61.676557	62.872647	54.102986
13.1900	13.1950	36	5	1268.4699	902.37058	61.227824	63.025450	54.957998
13.1950	13.2000	32	4	1267.8980	890.57637	61.212678	62.928757	55.713515
13.2000	13.2050	41	7	1267.3174	878.19382	61.369523	62.733117	56.429422
13.2050	13.2100	37	4	1266.7368	864.44970	61.416423	62.588691	57.160796
13.2100	13.2150	33	4	1266.1568	845.78479	61.063931	62.630520	57.947053
13.2150	13.2200	37	7	1265.5766	827.11276	60.711305	62.672366	58.733610
13.2200	13.2250	33	1	1264.9972	815.51518	60.491998	62.583912	59.335768
13.2250	13.2300	50	1	1264.4179	806.72040	60.325510	62.443732	59.864972
13.2300	13.2350	25	1	1263.8388	797.59888	60.153232	62.317868	60.324164
13.2350	13.2400	46	5	1263.2602	787.29249	59.959964	62.244025	60.528995
13.2400	13.2450	44	4	1262.6813	776.98216	59.766623	62.170154	60.733905
13.2450	13.2500	50	4	1262.1032	768.23247	59.578951	62.099440	60.776446
13.2500	13.2550	45	12	1261.5250	760.09775	59.393431	62.029942	60.754544
13.2550	13.2600	42	3	1260.9471	752.40193	59.206374	61.938263	60.725549
13.2600	13.2650	41	2	1260.3695	746.28950	59.013434	61.765806	60.670721
13.2650	13.2700	42	5	1259.7920	740.17707	58.820494	61.593349	60.615894
13.2700	13.2750	51	3	1259.2149	733.07768	58.583915	61.456361	60.531970
13.2750	13.2800	40	5	1258.6381	725.58618	58.329999	61.333463	60.436485
13.2800	13.2850	43	4	1258.0616	718.61872	58.065635	61.201275	60.348784
13.2850	13.2900	35	3	1257.4854	713.55099	57.762959	61.035129	60.289318
13.2900	13.2950	30	5	1256.9093	708.48519	57.460399	60.869046	60.229875
13.2950	13.3000	41	2	1256.3500	702.03618	57.113065	60.747556	60.138312
13.3000	13.3050	40	5	1255.7975	695.04108	56.748128	60.643848	60.034036
13.3050	13.3100	38	7	1255.2593	689.21148	56.415930	60.558648	59.929571
13.3100	13.3150	46	4	1254.7738	687.62746	56.203107	60.540865	59.824490
13.3150	13.3200	50	3	1254.2882	686.04344	55.990284	60.523082	59.719410
13.3200	13.3250	56	9	1253.8029	688.86290	55.675533	60.331475	59.577574
13.3250	13.3300	52	8	1253.3178	693.43132	55.320348	60.070843	59.421162
13.3300	13.3350	65	4	1252.8303	697.86848	54.853617	59.875240	59.297920
13.3350	13.3400	49	5	1252.3354	701.82029	53.981945	59.916535	59.295560
13.3400	13.3450	43	6	1251.8402	705.77362	53.109940	59.957845	59.293198
13.3450	13.3500	59	10	1251.3451	716.78235	52.742373	59.729212	59.229216
13.3500	13.3550	47	6	1250.8498	730.59868	52.575144	59.393224	59.140724
13.3550	13.3600	62	7	1250.3501	741.38675	52.303735	59.152005	59.036693
13.3600	13.3650	59	4	1249.8346	741.15171	51.653230	59.255730	58.876126
13.3650	13.3700	53	4	1249.3188	740.91658	51.002477	59.359495	58.715498
13.3700	13.3750	45	5	1248.7972	741.93970	50.621880	59.228124	58.563734
13.3750	13.3800	70	6	1248.2729	743.46371	50.348509	59.003180	58.415415
13.3800	13.3850	74	3	1247.7488	742.00208	50.140612	58.734584	58.277571
13.3850	13.3900	56	5	1247.2250	729.66357	50.170862	58.306575	58.177667
13.3900	13.3950	78	3	1246.7011	717.32506	50.201111	57.878565	58.077764
13.3950	13.4000	60	9	1246.1776	704.92964	50.195511	57.868155	57.988252
13.4000	13.4050	52	11	1245.6543	692.51157	50.175647	58.023880	57.902876
13.4050	13.4100	46	7	1245.1313	680.39439	50.243273	58.070713	57.783165
13.4100	13.4150	83	15	1244.6083	669.36106	50.629927	57.720611	57.538154
13.4150	13.4200	92	7	1244.0855	658.33195	51.016434	57.370642	57.293237
13.4200	13.4250	102	8	1243.5641	648.24984	51.063473	57.195133	57.211835
13.4250	13.4300	93	8	1243.0435	638.54994	50.975406	57.089140	57.195541
13.4300	13.4350	135	15	1242.5230	630.05849	51.018151	56.982417	57.138005
13.4350	13.4400	144	15	1242.0028	625.97892	51.537800	56.873109	56.930138
13.4400	13.4450	171	13	1241.4826	621.89934	52.057450	56.763800	56.722271
13.4450	13.4500	153	14	1240.9627	617.00845	52.280334	56.532240	56.580799
13.4500	13.4550	157	11	1240.4430	611.79561	52.385070	56.252071	56.465777
13.4550	13.4600	197	14	1239.9233	608.56317	52.604708	55.974179	56.321285
13.4600	13.4650	164	11	1239.4043	612.55473	53.242762	55.705082	56.069633
13.4650	13.4700	157	7	1238.8851	616.54782	53.881060	55.435882	55.817886
13.4700	13.4750	133	17	1238.3659	621.31063	54.540170	55.149987	55.658758
13.4750	13.4800	135	13	1237.8464	626.38138	55.207789	54.857350	55.536434
13.4800	13.4850	156	6	1237.3266	632.17246	55.797388	54.536188	55.410561
13.4850	13.4900	145	15	1236.8056	640.58940	56.102339	54.111059	55.271769
13.4900	13.4950	131	15	1236.2844	649.00955	56.407407	53.685768	55.132925
13.4950	13.5000	157	13	1235.7635	656.13609	56.920140	53.317346	54.884394
13.5000	13.5050	206	17	1235.2426	662.75106	57.515880	52.971383	54.592033
13.5050	13.5100	190	15	1234.7219	668.30722	57.947671	52.527224	54.336500
13.5100	13.5150	245	14	1234.2013	670.00937	57.782022	51.724115	54.214921
13.5150	13.5200	249	16	1233.6808	671.71152	57.616374	50.921007	54.093341
13.5200	13.5250	210	15	1233.1606	673.72472	57.652429	50.463501	53.819123
13.5250	13.5300	239	10	1232.6406	675.86186	57.768850	50.143695	53.484088
13.5300	13.5350	181	12	1232.1217	677.18969	57.782157	49.754314	53.129335
13.5350	13.5400	178	12	1231.6064	675.56183	57.418712	49.110294	52.702148
13.5400	13.5450	141	18	1231.0913	673.93459	57.055405	48.466520	52.275125
13.5450	13.5500	126	16	1230.5778	673.46183	56.936519	48.193894	52.018090
13.5500	13.5550	110	16	1230.0653	673.44965	56.915154	48.069400	51.828971
13.5550	13.5600	112	7	1229.5527	673.52551	56.862834	47.925727	51.547764
13.5600	13.5650	80	11	1229.0405	673.92289	56.697482	47.712099	50.930375
13.5650	13.5700	84	8	1228.5282	674.32028	56.532129	47.498471	50.312986
13.5700	13.5750	74	7	1228.0163	670.64336	56.296498	47.585617	49.748136
13.5750	13.5800	51	9	1227.5045	665.34356	56.032906	47.792602	49.204330
13.5800	13.5850	53	5	1226.9926	660.96550	55.904553	47.998955	48.650632
13.5850	13.5900	43	2	1226.4811	659.96183	56.270376	48.202629	48.061782
13.5900	13.5950	37	3	1225.9695	658.95777	56.636339	48.406380	47.472708
13.5950	13.6000	51	4	1225.4620	654.35542	56.868210	48.642334	46.841771
13.6000	13.6050	38	4	1224.9561	648.31743	57.046720	48.891202	46.193934
13.6050	13.6100	35	2	1224.4441	641.42092	57.347189	49.168198	45.686167
13.6100	13.6150	25	8	1223.9103	631.39066	58.092961	49.547860	45.689996
13.6150	13.6200	37	3	1223.3763	621.35658	58.839018	49.927666	45.693825
13.6200	13.6250	41	7	1222.8429	616.33233	59.416849	50.409282	45.606375
13.6250	13.6300	40	5	1222.3095	613.30398	59.927877	50.931771	45.482462
13.6300	13.6350	60	7	1221.7762	611.46945	60.433975	51.452492	45.443404
13.6350	13.6400	57	7	1221.2428	613.99708	60.922848	51.967572	45.714545
13.6400	13.6450	56	8	1220.7094	616.52472	61.411721	52.482653	45.985685
13.6450	13.6500	58	2	1220.1753	623.47333	61.909522	53.062982	46.180349
13.6500	13.6550	54	9	1219.6410	632.18645	62.410886	53.669354	46.344488
13.6550	13.6600	62	10	1219.1047	640.45375	62.825353	54.241637	46.553888
13.6600	13.6650	68	8	1218.5606	647.09824	62.922216	54.689767	46.929169
13.6650	13.6700	84	6	1218.0167	653.74019	63.019042	55.137726	47.304308
13.6700	13.6750	67	5	1217.4729	664.15332	63.211668	55.504055	47.772037
13.6750	13.6800	66	1	1216.9295	676.06659	63.442442	55.837595	48.276485
13.6800	13.6850	90	7	1216.3861	688.28603	63.624958	56.163742	48.715331
13.6850	13.6900	119	8	1215.8431	701.61736	63.630737	56.462606	48.913793
13.6900	13.6950	108	10	1215.3001	714.94870	63.636517	56.761469	49.112255
13.6950	13.7000	121	8	1214.7574	725.94614	63.599232	56.631716	49.488950
13.7000	13.7050	121	10	1214.2149	736.00999	63.544766	56.330923	49.936707
13.7050	13.7100	136	12	1213.6686	745.84834	63.480870	55.967039	50.421873
13.7100	13.7150	122	10	1213.1091	754.84418	63.382585	55.372987	51.043033
13.7150	13.7200	100	6	1212.5493	763.84344	63.284262	54.778708	51.664430
13.7200	13.7250	108	6	1211.9601	766.70586	63.184792	54.478904	52.061937
13.7250	13.7300	101	9	1211.3590	767.11991	63.084829	54.296528	52.370221
13.7300	13.7350	82	10	1210.5809	767.58055	62.984961	54.063439	52.758816
13.7350	13.7400	90	9	1209.1556	768.21160	62.885458	53.644800	53.441251
13.7400	13.7450	93	6	1207.7297	768.84289	62.785918	53.226001	54.123946
13.7450	13.7500	81	8	1203.7271	767.43780	62.686925	53.177794	54.317614
13.7500	13.7550	70	4	1198.6927	765.21833	62.588098	53.277631	54.315994
13.7550	13.7600	89	7	1192.2884	763.60465	62.489373	53.441943	54.294364
13.7600	13.7650	100	5	1180.8578	764.20637	62.390866	53.842575	54.199437
13.7650	13.7700	108	5	1169.4272	764.80810	62.292360	54.243207	54.104509
13.7700	13.7750	90	12	1156.8392	763.98792	62.194172	54.619931	53.651113
13.7750	13.7800	119	8	1143.7886	762.59945	62.096112	54.987099	53.054448
13.7800	13.7850	141	14	1130.1144	761.45940	61.998119	55.452165	52.522664
13.7850	13.7900	118	7	1114.1388	761.22903	61.900262	56.276699	52.228208
13.7900	13.7950	130	9	1098.1693	760.99875	61.802442	57.100919	51.933864
13.7950	13.8000	123	14	1084.7613	761.38510	61.705035	57.607718	51.533791
13.8000	13.8050	114	9	1072.3847	762.01780	61.607844	57.987331	51.091659
13.8050	13.8100	142	15	1061.8825	761.89992	61.510778	58.431707	50.810666
13.8100	13.8150	115	5	1058.2609	759.02989	61.414240	59.113247	51.120748
13.8150	13.8200	127	12	1054.6400	756.16040	61.317721	59.794658	51.430770
13.8200	13.8250	118	7	1055.7649	754.91410	61.221241	60.255553	51.602864
13.8250	13.8300	125	15	1058.7883	754.31794	61.124829	60.627968	51.719677
13.8300	13.8350	138	8	1062.8496	753.70872	61.028161	60.944727	51.947851
13.8350	13.8400	117	14	1070.7085	753.05267	60.930731	61.056913	52.583811
13.8400	13.8450	101	10	1078.5704	752.39637	60.833263	61.169143	53.220014
13.8450	13.8500	85	8	1083.4357	751.44521	60.736065	61.202121	53.816696
13.8500	13.8550	88	8	1087.1044	750.37582	60.638941	61.203423	54.397782
13.8550	13.8600	73	7	1090.7662	749.51320	60.541931	61.183641	54.983631
13.8600	13.8650	70	5	1094.4017	749.40910	60.445353	61.086532	55.586840
13.8650	13.8700	43	6	1098.0385	749.30495	60.348738	60.989385	56.190280
13.8700	13.8750	48	2	1101.9708	747.91980	60.252576	60.892680	56.871146
13.8750	13.8800	40	5	1106.0233	746.02125	60.156542	60.796101	57.583364
13.8800	13.8850	45	7	1109.4932	744.29694	60.060615	60.699669	58.199400
13.8850	13.8900	39	1	1110.8305	743.20926	59.964926	60.603626	58.463486
13.8900	13.8950	34	4	1112.1678	742.12159	59.869237	60.507583	58.727573
13.8950	13.9000	44	6	1114.0983	740.93184	59.774139	60.411968	58.889061
13.9000	13.9050	37	8	1116.2664	739.70123	59.679277	60.316524	59.009468
13.9050	13.9100	48	8	1118.1734	738.36652	59.584588	60.221297	59.087978
13.9100	13.9150	46	8	1119.1234	736.64788	59.490429	60.126763	59.012633
13.9150	13.9200	48	9	1120.0730	734.92989	59.396305	60.032264	58.937317
13.9200	13.9250	58	2	1120.5655	734.01089	59.302267	59.937783	58.848825
13.9250	13.9300	73	5	1120.8746	733.41244	59.208313	59.843361	58.755101
13.9300	13.9350	65	5	1121.1607	732.55313	59.114217	59.748776	58.661246
13.9350	13.9400	60	4	1121.3618	730.73570	59.019664	59.653664	58.566969
13.9400	13.9450	71	10	1121.5629	728.91861	58.925128	59.558570	58.472711
13.9450	13.9500	63	2	1121.2556	727.48080	58.830934	59.463827	58.378813
13.9500	13.9550	62	2	1120.7445	726.19579	58.736926	59.369275	58.285109
13.9550	13.9600	53	7	1120.3448	724.52478	58.643055	59.274855	58.191518
13.9600	13.9650	50	6	1120.3544	721.43933	58.549854	59.181086	58.098503
13.9650	13.9700	59	6	1120.3640	718.35271	58.456617	59.087281	58.005454
13.9700	13.9750	67	8	1120.8298	716.54161	58.363831	58.994108	57.913033
13.9750	13.9800	38	4	1121.4785	715.24068	58.271194	58.901157	57.820832
13.9800	13.9850	45	3	1121.9669	713.88009	58.178688	58.808310	57.728732
13.9850	13.9900	33	4	1121.8664	712.30059	58.086678	58.715860	57.637023
13.9900	13.9950	31	4	1121.7659	710.72050	57.994633	58.623375	57.545279
13.9950	14.0000	49	5	1121.6004	708.03855	57.902090	58.530458	57.453078
14.0000	14.0050	51	7	1121.4087	704.91366	57.809297	58.437319	57.360644
14.0050	14.0100	44	5	1121.1852	701.89358	57.716429	58.344072	57.268128
14.0100	14.0150	63	1	1120.8441	699.25391	57.623134	58.250281	57.175168
14.0150	14.0200	54	5	1120.5031	696.61423	57.529839	58.156490	57.082208
14.0200	14.0250	78	3	1120.2492	693.35919	57.436657	58.062782	56.989307
14.0250	14.0300	76	9	1120.0304	689.85743	57.343519	57.969107	56.896428
14.0300	14.0350	76	13	1120.1482	686.32177	57.250390	57.875479	56.803598
14.0350	14.0400	67	5	1121.5054	682.65741	57.157193	57.781923	56.710844
14.0400	14.0450	92	4	1122.8620	678.99446	57.064032	57.688403	56.618125
14.0450	14.0500	103	9	1122.3223	674.80737	56.971141	57.595021	56.525584
14.0500	14.0550	101	9	1121.0223	670.41229	56.878407	57.501745	56.433164
14.0550	14.0600	79	6	1120.0502	665.02416	56.784117	57.406971	56.339250
14.0600	14.0650	73	8	1120.2855	655.98628	56.684170	57.306754	56.239909
14.0650	14.0700	81	7	1120.5207	646.95013	56.584241	57.206556	56.140587
14.0700	14.0750	56	12	1119.6966	638.17083	56.484754	57.106694	56.041733
14.0750	14.0800	73	11	1118.4480	629.49931	56.385498	57.007019	55.943119
14.0800	14.0850	77	7	1117.2373	620.80797	56.286448	56.907555	55.844689
14.0850	14.0900	67	4	1116.1688	612.05925	56.188333	56.809045	55.747109
14.0900	14.0950	55	6	1115.0999	603.30720	56.090181	56.710497	55.649491
14.0950	14.1000	50	7	1116.0179	599.50363	55.993547	56.613501	55.553338
14.1000	14.1050	50	9	1117.7330	597.68350	55.897490	56.517093	55.457739
14.1050	14.1100	49	8	1118.6961	596.68453	55.801644	56.420886	55.362368
14.1100	14.1150	47	8	1116.8889	598.71038	55.706596	56.325436	55.267856
14.1150	14.1200	45	6	1115.0811	600.73699	55.611512	56.229949	55.173307
14.1200	14.1250	53	5	1114.5670	604.54774	55.516833	56.135102	55.079125
14.1250	14.1300	75	6	1114.5720	609.07683	55.422267	56.040463	54.985039
14.1300	14.1350	55	8	1114.6281	613.51448	55.327882	55.945902	54.891099
14.1350	14.1400	43	4	1114.8727	617.62248	55.234011	55.851482	54.797547
14.1400	14.1450	54	4	1115.1173	621.73047	55.140141	55.757061	54.703995
14.1450	14.1500	72	7	1114.0852	625.10796	55.046480	55.662826	54.610604
14.1500	14.1550	56	5	1112.5402	628.19202	54.952904	55.568664	54.517278
14.1550	14.1600	56	12	1111.4211	631.72133	54.858740	55.473923	54.423384
14.1600	14.1650	60	6	1111.8720	636.89729	54.762302	55.376943	54.327290
14.1650	14.1700	78	4	1112.3227	642.07127	54.665902	55.280000	54.231232
14.1700	14.1750	71	7	1112.1032	646.76208	54.569893	55.183363	54.135471
14.1750	14.1800	117	7	1111.6144	651.25624	54.474093	55.086900	54.039879
14.1800	14.1850	156	25	1110.9062	656.18523	54.378385	54.990546	53.944390
14.1850	14.1900	182	12	1109.3897	662.71355	54.283083	54.894664	53.849345
14.1900	14.1950	195	19	1107.8735	669.24062	54.187799	54.798800	53.754318
14.1950	14.2000	241	21	1107.6735	676.94763	54.093342	54.703650	53.660067
14.2000	14.2050	318	26	1108.0027	685.12486	53.999269	54.608838	53.566177
14.2050	14.2100	313	28	1108.0373	693.72153	53.905412	54.514273	53.472514
14.2100	14.2150	356	24	1106.9857	703.84916	53.812522	54.420787	53.379854
14.2150	14.2200	277	24	1105.9337	713.98065	53.719596	54.327264	53.287159
14.2200	14.2250	246	21	1105.3847	723.94887	53.628825	54.235816	53.196591
14.2250	14.2300	218	17	1105.0373	733.85494	53.538887	54.145169	53.106845
14.2300	14.2350	180	25	1104.6782	741.67862	53.449035	54.054623	53.017169
14.2350	14.2400	183	16	1104.2757	741.82017	53.359514	53.964468	52.927770
14.2400	14.2450	149	10	1103.8730	741.96178	53.269958	53.874278	52.838336
14.2450	14.2500	152	13	1102.8327	740.00566	53.180771	53.784398	52.749305
14.2500	14.2550	156	18	1101.5355	737.20477	53.091685	53.694595	52.660387
14.2550	14.2600	142	11	1100.6397	732.81058	53.002738	53.604892	52.571615
14.2600	14.2650	151	14	1101.2244	722.52741	52.914160	53.515414	52.483241
14.2650	14.2700	149	7	1101.8091	712.24424	52.825583	53.425937	52.394866
14.2700	14.2750	130	11	1101.0233	705.78252	52.737349	53.336894	52.306758
14.2750	14.2800	109	12	1099.6862	700.85803	52.649254	53.248027	52.218758
14.2800	14.2850	78	10	1098.5427	696.30186	52.560858	53.158849	52.130495
14.2850	14.2900	64	6	1098.1134	693.10217	52.471253	53.068426	52.041161
14.2900	14.2950	62	5	1097.6842	689.90369	52.381683	52.978038	51.951861
14.2950	14.3000	61	6	1097.5498	689.87078	52.291566	52.887192	51.861897
14.3000	14.3050	53	3	1097.5341	691.11204	52.201277	52.796210	51.771714
14.3050	14.3100	57	4	1097.2133	693.50313	52.110903	52.705168	51.681446
14.3100	14.3150	39	3	1095.7649	700.14108	52.020278	52.613970	51.590932
14.3150	14.3200	50	4	1094.3169	706.77776	51.929671	52.522790	51.500436
14.3200	14.3250	48	6	1093.3979	713.14229	51.839450	52.431990	51.410128
14.3250	14.3300	55	3	1092.6925	719.39382	51.749433	52.341391	51.319945
14.3300	14.3350	52	6	1092.2365	726.53137	51.658962	52.250383	51.229360
14.3350	14.3400	61	6	1092.7032	736.92939	51.566975	52.158028	51.137449
14.3400	14.3450	75	10	1093.1700	747.33138	51.474953	52.065637	51.045504
14.3450	14.3500	78	11	1092.0772	758.21970	51.381139	51.971339	50.951713
14.3500	14.3550	119	11	1090.3563	769.30749	51.286573	51.876241	50.857147
14.3550	14.3600	129	17	1088.9553	780.21633	51.192076	51.781218	50.762737
14.3600	14.3650	124	8	1088.7362	790.46177	51.097850	51.686490	50.668924
14.3650	14.3700	141	11	1088.5171	800.71112	51.003589	51.591725	50.575074
14.3700	14.3750	168	18	1087.8779	807.10951	50.909741	51.497344	50.481563
14.3750	14.3800	147	9	1087.0691	811.96100	50.816010	51.403066	50.388137
14.3800	14.3850	153	20	1086.2331	815.76836	50.722428	51.308943	50.294875
14.3850	14.3900	148	11	1085.2948	815.72192	50.629253	51.215239	50.202069
14.3900	14.3950	118	14	1084.3565	815.67549	50.536077	51.121535	50.109262
14.3950	14.4000	105	10	1083.7093	815.11119	50.442876	51.027737	50.016381
14.4000	14.4050	108	5	1083.1794	814.33831	50.349664	50.933903	49.923470
14.4050	14.4100	110	9	1082.4025	813.56857	50.256192	50.839814	49.830309
14.4100	14.4150	96	15	1080.7104	812.80959	50.161653	50.744684	49.736121
14.4150	14.4200	98	8	1079.0188	812.05089	50.067150	50.649590	49.641968
14.4200	14.4250	94	6	1078.0751	811.24498	49.974011	50.555856	49.549158
14.4250	14.4300	97	5	1077.4333	810.42046	49.881473	50.462721	49.456938
14.4300	14.4350	82	6	1076.8301	809.61569	49.789017	50.369684	49.364817
14.4350	14.4400	82	6	1076.3699	808.88455	49.696935	50.277071	49.273125
14.4400	14.4450	70	8	1075.9099	808.15356	49.604870	50.184476	49.181451
14.4450	14.4500	75	9	1074.7672	807.38265	49.510030	50.092331	49.090110
14.4500	14.4550	68	9	1073.3498	806.59605	49.414121	50.000418	48.998954
14.4550	14.4600	73	7	1072.1461	805.81336	49.299641	49.908286	48.907640
14.4600	14.4650	58	5	1071.7356	805.04652	49.116602	49.815510	48.815909
14.4650	14.4700	64	6	1071.3249	804.27938	48.933493	49.722698	48.724143
14.4700	14.4750	61	6	1069.8519	803.50648	48.758469	49.630340	48.632566
14.4750	14.4800	60	9	1067.9501	802.73098	48.586644	49.538132	48.541034
14.4800	14.4850	63	10	1066.2673	801.95571	48.325543	49.446072	48.449717
14.4850	14.4900	74	9	1065.3956	801.18141	47.733910	49.354581	48.359212
14.4900	14.4950	64	9	1064.5236	800.40682	47.142051	49.263056	48.268672
14.4950	14.5000	46	8	1064.0647	799.67651	46.669525	49.172811	48.179424
14.5000	14.5050	64	7	1063.7722	798.96366	46.244871	49.083035	48.090648
14.5050	14.5100	61	4	1063.1815	798.24686	45.838554	48.993632	48.002217
14.5100	14.5150	71	5	1061.4851	797.51429	45.499515	48.905470	47.914921
14.5150	14.5200	78	7	1059.7886	796.78172	45.160476	48.817308	47.827625
14.5200	14.5250	73	15	1058.1518	796.05569	44.621831	48.729509	47.740714
14.5250	14.5300	104	7	1056.5390	795.33230	44.002613	48.641855	47.653959
14.5300	14.5350	124	6	1055.0236	794.61156	43.478292	48.554325	47.567328
14.5350	14.5400	123	9	1053.8676	793.89984	43.305404	48.467156	47.481061
14.5400	14.5450	145	15	1052.7120	793.18840	43.132581	48.380020	47.394827
14.5450	14.5500	155	8	1051.0356	792.46324	42.808242	48.293000	47.308700
14.5500	14.5550	154	12	1049.1498	791.73293	42.422922	48.206073	47.222663
14.5550	14.5600	118	6	1047.4895	791.00113	42.185328	48.119176	47.136610
14.5600	14.5650	101	10	1046.6668	790.26429	42.496028	48.032455	47.050562
14.5650	14.5700	93	9	1045.8443	789.52760	42.806669	47.945749	46.964531
14.5700	14.5750	92	12	1043.7560	788.79205	42.903341	47.859179	46.878791
14.5750	14.5800	75	7	1041.1574	788.05735	42.913499	47.772709	46.793214
14.5800	14.5850	64	8	1038.7659	787.32301	42.947408	47.686341	46.707714
14.5850	14.5900	65	5	1037.1472	786.59127	43.069316	47.600503	46.622651
14.5900	14.5950	71	9	1035.5278	785.85926	43.191271	47.514633	46.537556
14.5950	14.6000	63	8	1033.9711	785.11726	43.227711	47.428343	46.452150
14.6000	14.6050	59	9	1032.4391	784.37097	43.229651	47.341854	46.366590
14.6050	14.6100	46	7	1030.4451	783.62160	43.196936	47.255258	46.280926
14.6100	14.6150	52	4	1026.7370	782.86091	43.035607	47.168284	46.194889
14.6150	14.6200	38	9	1023.0275	782.09993	42.874217	47.081276	46.108820
14.6200	14.6250	43	2	1019.3451	781.35215	42.923228	46.995296	46.023794
14.6250	14.6300	53	5	1015.6716	780.60930	43.057274	46.909685	45.939145
14.6300	14.6350	44	2	1011.2891	779.86754	43.153654	46.808362	45.854653
14.6350	14.6400	49	5	1004.2683	779.12863	43.110418	46.648573	45.770607
14.6400	14.6450	44	3	997.24745	778.38971	43.067182	46.488784	45.686562
14.6450	14.6500	38	7	988.75937	777.65278	43.096106	46.170591	45.602877
14.6500	14.6550	65	5	979.67825	776.91664	43.154195	45.788373	45.519338
14.6550	14.6600	67	10	971.62192	776.18102	43.197766	45.350267	45.435915
14.6600	14.6650	70	8	967.36631	775.44648	43.187415	44.703935	45.352832
14.6650	14.6700	71	5	963.11233	774.71222	43.177069	44.057850	45.269781
14.6700	14.6750	63	6	961.39517	773.97892	43.119333	43.533218	45.187080
14.6750	14.6800	65	7	960.70449	773.24639	43.042471	43.057966	45.104564
14.6800	14.6850	59	9	961.49788	772.51040	42.982304	42.555754	45.021663
14.6850	14.6900	53	7	967.80726	771.76207	42.984235	41.953681	44.937388
14.6900	14.6950	42	8	974.11543	771.01388	42.986166	41.351723	44.853128
14.6950	14.7000	47	3	985.67968	770.25708	42.851333	40.818502	44.768431
14.7000	14.7050	27	7	999.36434	769.49720	42.661238	40.313377	44.683602
14.7050	14.7100	47	6	1012.9740	768.73766	42.523253	39.913666	44.598790
14.7100	14.7150	48	7	1026.2803	767.98070	42.579092	39.906253	44.514194
14.7150	14.7200	39	5	1039.5918	767.22345	42.634952	39.898837	44.429566
14.7200	14.7250	49	4	1049.8449	766.46720	42.557917	39.974298	44.145085
14.7250	14.7300	48	10	1058.8650	765.71111	42.427124	40.083293	43.779704
14.7300	14.7350	45	7	1067.0028	764.95558	42.324151	40.212633	43.322873
14.7350	14.7400	53	10	1071.8588	764.20233	42.324640	40.417599	42.526093
14.7400	14.7450	58	7	1076.7166	763.44878	42.325129	40.622644	41.729010
14.7450	14.7500	62	8	1079.5904	762.50545	42.264924	40.780306	40.969727
14.7500	14.7550	53	8	1081.6627	761.48481	42.180123	40.918877	40.225334
14.7550	14.7600	52	2	1083.1963	760.48785	42.074063	41.026320	39.507408
14.7600	14.7650	53	8	1082.7288	759.57739	41.888763	41.018162	38.886765
14.7650	14.7700	41	7	1082.2613	758.66693	41.703463	41.010003	38.266121
14.7700	14.7750	45	7	1081.7095	757.87803	41.666772	40.941117	37.755615
14.7750	14.7800	38	2	1081.1237	757.13834	41.690239	40.847649	37.289693
14.7800	14.7850	34	5	1080.5308	756.39899	41.707255	40.786587	36.952754
14.7850	14.7900	35	4	1079.9108	755.66013	41.700259	40.846167	37.095886
14.7900	14.7950	31	8	1079.2910	754.92155	41.693266	40.905725	37.238964
14.7950	14.8000	36	4	1078.6717	754.18116	41.606286	41.029670	37.584463
14.8000	14.8050	28	3	1078.0529	753.44044	41.486959	41.179623	38.011750
14.8050	14.8100	39	5	1077.4341	752.69854	41.371153	41.261228	38.404675
14.8100	14.8150	37	4	1076.8159	751.95276	41.268539	41.088300	38.669380
14.8150	14.8200	46	3	1076.1979	751.20712	41.165945	40.915405	38.934034
14.8200	14.8250	35	7	1075.5793	750.46178	41.028815	40.847446	39.164151
14.8250	14.8300	41	3	1074.9608	749.71696	40.877766	40.822039	39.380151
14.8300	14.8350	32	5	1074.3376	748.96929	40.768838	40.805530	39.546799
14.8350	14.8400	34	4	1073.6980	748.21240	40.816850	40.822159	39.529485
14.8400	14.8450	39	6	1073.0582	747.45522	40.864882	40.838795	39.512165
14.8450	14.8500	28	7	1072.4193	746.70205	40.839001	40.805179	39.546912
14.8500	14.8550	24	2	1071.7805	745.95024	40.783183	40.751205	39.602753
14.8550	14.8600	34	5	1071.1420	745.19911	40.721251	40.712206	39.645108
14.8600	14.8650	44	5	1070.5043	744.45061	40.636552	40.729003	39.637210
14.8650	14.8700	38	4	1069.8663	743.70183	40.551821	40.745806	39.629309
14.8700	14.8750	36	4	1069.2291	742.95554	40.484001	40.679092	39.566914
14.8750	14.8800	39	4	1068.5919	742.20986	40.423001	40.578489	39.482395
14.8800	14.8850	29	4	1067.9519	741.46261	40.355924	40.516618	39.411147
14.8850	14.8900	32	11	1067.3001	740.70828	40.266092	40.598990	39.389239
14.8900	14.8950	46	8	1066.6484	739.95396	40.176260	40.681362	39.367330
14.8950	14.9000	43	4	1065.9849	739.19279	40.130363	40.625865	39.302641
14.9000	14.9050	44	5	1065.3165	738.42884	40.102279	40.514468	39.220607
14.9050	14.9100	64	5	1064.6495	737.66514	40.046060	40.406484	39.142021
14.9100	14.9150	51	3	1063.9866	736.90150	39.884774	40.311117	39.076216
14.9150	14.9200	45	8	1063.3240	736.13814	39.723550	40.215786	39.010437
14.9200	14.9250	57	9	1062.6615	735.37431	39.710897	40.137885	38.942880
14.9250	14.9300	57	6	1061.9993	734.61070	39.758515	40.067095	38.874638
14.9300	14.9350	42	7	1061.3373	733.84754	39.777139	40.001973	38.804038
14.9350	14.9400	53	9	1060.6762	733.08664	39.687586	39.958041	38.724690
14.9400	14.9450	56	10	1060.0152	732.32589	39.598051	39.914116	38.645357
14.9450	14.9500	49	7	1059.3544	731.56503	39.491177	39.882703	38.586891
14.9500	14.9550	60	6	1058.6940	730.80453	39.377324	39.856384	38.536925
14.9550	14.9600	84	5	1058.0327	730.03973	39.288959	39.807670	38.482921
14.9600	14.9650	95	9	1057.3694	729.26033	39.295799	39.675538	38.413961
14.9650	14.9700	96	12	1056.7058	728.48063	39.302642	39.543354	38.344975
14.9700	14.9750	122	8	1056.0387	727.69819	39.151624	39.476109	38.288731
14.9750	14.9800	140	10	1055.3700	726.91437	38.936528	39.435177	38.237635
14.9800	14.9850	227	19	1054.7007	726.13048	38.769570	39.376858	38.186523
14.9850	14.9900	255	20	1054.0294	725.34645	38.782343	39.253638	38.135360
14.9900	14.9950	290	32	1053.3578	724.56213	38.795121	39.130372	38.084178
14.9950	15.0000	393	24	1052.6872	723.79255	38.728199	39.004582	37.986169
15.0000	15.0050	515	31	1052.0166	723.02855	38.628878	38.877699	37.869094
15.0050	15.0100	613	33	1051.3464	722.26899	38.533896	38.785509	37.774534
15.0100	15.0150	680	34	1050.6769	721.52482	38.454963	38.822730	37.763904
15.0150	15.0200	715	47	1050.0074	720.78064	38.376030	38.859952	37.753275
15.0200	15.0250	670	39	1049.3386	720.03826	38.326311	38.760238	37.695443
15.0250	15.0300	606	41	1048.6701	719.29661	38.288452	38.604934	37.618450
15.0300	15.0350	462	30	1048.0019	718.55560	38.211439	38.467280	37.551472
15.0350	15.0400	383	28	1047.3343	717.81614	37.987973	38.395457	37.521862
15.0400	15.0450	299	15	1046.6669	717.07696	37.764592	38.323661	37.492262
15.0450	15.0500	258	12	1045.9996	716.33897	37.737740	38.257972	37.423300
15.0500	15.0550	221	13	1045.3324	715.60152	37.790798	38.194771	37.338338
15.0550	15.0600	180	16	1044.6655	714.86457	37.804041	38.137376	37.260616
15.0600	15.0650	170	10	1043.9993	714.12947	37.668410	38.101692	37.209966
15.0650	15.0700	155	15	1043.3331	713.39437	37.532780	38.066008	37.159316
15.0700	15.0750	150	16	1042.6676	712.66067	37.396761	37.995604	37.074635
15.0750	15.0800	146	9	1042.0025	711.92768	37.260611	37.911105	36.976143
15.0800	15.0850	125	10	1041.3374	711.19495	37.159728	37.825836	36.884089
15.0850	15.0900	124	8	1040.6734	710.46454	37.190898	37.737846	36.816275
15.0900	15.0950	129	12	1040.0093	709.73400	37.222075	37.649839	36.748447
15.0950	15.1000	103	6	1039.3460	708.99307	37.094932	37.623254	36.705980
15.1000	15.1050	107	14	1038.6830	708.24792	36.903398	37.621648	36.673827
15.1050	15.1100	75	6	1038.0202	707.49972	36.747913	37.589674	36.633405
15.1100	15.1150	67	12	1037.3578	706.74010	36.727281	37.444091	36.562048
15.1150	15.1200	59	4	1036.6955	705.98048	36.706650	37.298508	36.490692
15.1200	15.1250	48	6	1036.0339	705.22270	36.609623	37.237453	36.395905
15.1250	15.1300	44	8	1035.3723	704.46532	36.481487	37.210741	36.291548
15.1300	15.1350	43	2	1034.7108	703.70727	36.377847	37.175837	36.197533
15.1350	15.1400	43	7	1034.0492	702.94545	36.365693	37.110223	36.142057
15.1400	15.1450	31	9	1033.3876	702.18364	36.353538	37.044609	36.086582
15.1450	15.1500	59	3	1032.7264	701.42235	36.270840	36.943574	36.016488
15.1500	15.1550	54	10	1032.0654	700.66128	36.159438	36.828127	35.940447
15.1550	15.1600	35	5	1031.4048	699.90084	36.063048	36.723248	35.870435
15.1600	15.1650	57	9	1030.7445	699.14188	36.022814	36.657862	35.822946
15.1650	15.1700	72	5	1030.0846	698.38321	35.982596	36.592502	35.775475
15.1700	15.1750	67	13	1029.4253	697.62617	35.891134	36.529072	35.678484
15.1750	15.1800	78	14	1028.7662	696.86985	35.778817	36.466432	35.561339
15.1800	15.1850	79	9	1028.1074	696.11388	35.664998	36.409479	35.467330
15.1850	15.1900	97	10	1027.4490	695.35926	35.545556	36.373818	35.459950
15.1900	15.1950	94	4	1026.7907	694.60464	35.426114	36.338157	35.452570
15.1950	15.2000	88	6	1026.1207	693.70468	35.377833	36.234508	35.372148
15.2000	15.2050	112	5	1025.4462	692.74577	35.358506	36.103226	35.262032
15.2050	15.2100	125	9	1024.7715	691.24947	35.329168	35.986394	35.163612
15.2100	15.2150	115	8	1024.0975	687.74420	35.262406	35.923864	35.109156
15.2150	15.2200	95	10	1023.4234	684.23825	35.195631	35.861322	35.054689
15.2200	15.2250	92	17	1022.7500	678.05160	35.118960	35.819419	35.005732
15.2250	15.2300	103	8	1022.0768	670.77376	35.038261	35.785919	34.959017
15.2300	15.2350	132	7	1021.4039	662.97804	34.962576	35.725794	34.887251
15.2350	15.2400	128	12	1020.7322	653.24299	34.905667	35.565973	34.721675
15.2400	15.2450	143	9	1020.0605	643.50794	34.848758	35.406152	34.556098
15.2450	15.2500	196	12	1019.3895	632.62457	34.673402	35.361220	34.470614
15.2500	15.2550	195	10	1018.7185	621.26862	34.449735	35.363051	34.417703
15.2550	15.2600	248	12	1018.0480	611.03695	34.268055	35.329320	34.358636
15.2600	15.2650	273	18	1017.3781	605.00261	34.243450	35.162247	34.276398
15.2650	15.2700	271	18	1016.7082	598.96826	34.218845	34.995174	34.194160
15.2700	15.2750	259	12	1016.0511	595.09525	34.140012	34.904961	34.150923
15.2750	15.2800	224	14	1015.3992	592.10255	34.039091	34.846053	34.123570
15.2800	15.2850	162	20	1014.7478	590.52890	33.938868	34.793237	34.082611
15.2850	15.2900	141	11	1014.0972	594.27949	33.841153	34.763225	33.990533
15.2900	15.2950	118	4	1013.4468	598.02866	33.743475	34.733225	33.898491
15.2950	15.3000	93	5	1012.7970	602.21389	33.628224	34.620867	33.825151
15.3000	15.3050	82	3	1012.1474	606.57656	33.505819	34.474941	33.759442
15.3050	15.3100	63	10	1011.4981	610.90731	33.374937	34.350906	33.692828
15.3100	15.3150	60	3	1010.8494	615.11827	33.212253	34.309007	33.622821
15.3150	15.3200	57	7	1010.2007	619.32924	33.049569	34.267109	33.552814
15.3200	15.3250	53	2	1009.5528	621.79912	33.000188	34.183004	33.477088
15.3250	15.3300	54	3	1008.9052	623.55896	32.996993	34.081713	33.399046
15.3300	15.3350	51	5	1008.2576	625.09010	32.940963	33.991401	33.329283
15.3350	15.3400	48	9	1007.6110	625.76046	32.686806	33.942439	33.290703
15.3400	15.3450	43	6	1006.9642	626.43095	32.432600	33.893468	33.252116
15.3450	15.3500	44	4	1006.3170	627.25439	32.348874	33.833799	33.195767
15.3500	15.3550	44	3	1005.6695	628.14018	32.334657	33.769768	33.132177
15.3550	15.3600	29	5	1005.0219	628.59359	32.283467	33.700672	33.063076
15.3600	15.3650	43	7	1004.3741	627.42465	32.093551	33.612571	32.973303
15.3650	15.3700	39	4	1003.7262	626.25572	31.903635	33.524471	32.883529
15.3700	15.3750	54	6	1003.0786	626.89669	31.614828	33.458139	32.824788
15.3750	15.3800	55	5	1002.4309	628.27614	31.285555	33.400656	32.778678
15.3800	15.3850	53	5	1001.7837	629.37133	31.006862	33.325862	32.723838
15.3850	15.3900	40	0	1001.1375	629.40064	30.917688	33.185931	32.636119
15.3900	15.3950	41	6	1000.4913	629.42995	30.828515	33.045999	32.548400
15.3950	15.4000	36	5	999.84556	628.87743	30.550664	32.995714	32.478735
15.4000	15.4050	32	2	999.20000	628.08752	30.195825	32.982009	32.416436
15.4050	15.4100	32	5	998.55477	627.48860	29.959492	32.949431	32.342739
15.4100	15.4150	30	5	997.91006	627.60715	30.168471	32.845858	32.226098
15.4150	15.4200	31	7	997.26559	627.72565	30.377371	32.742324	32.109502
15.4200	15.4250	24	1	996.61057	627.09838	30.481696	32.642419	32.061564
15.4250	15.4300	38	4	995.95129	626.16676	30.543330	32.544002	32.041653
15.4300	15.4350	32	6	995.29156	625.52658	30.655656	32.458975	32.006318
15.4350	15.4400	57	6	994.63010	625.98187	30.958533	32.424281	31.913005
15.4400	15.4450	68	7	993.96864	626.43717	31.261410	32.389586	31.819691
15.4450	15.4500	75	8	993.30795	626.14971	31.404329	32.270894	31.715792
15.4500	15.4550	70	7	992.64770	625.55920	31.481942	32.117946	31.607593
15.4550	15.4600	50	7	991.98740	624.98739	31.575178	31.995426	31.510002
15.4600	15.4650	65	9	991.32813	624.48690	31.726950	31.987461	31.452446
15.4650	15.4700	50	4	990.66872	623.98631	31.878751	31.979494	31.394879
15.4700	15.4750	50	4	990.01011	623.93655	32.066228	31.894734	31.316353
15.4750	15.4800	48	5	989.35181	624.07093	32.268278	31.778607	31.229267
15.4800	15.4850	47	3	988.69371	623.88494	32.434076	31.672146	31.149050
15.4850	15.4900	38	6	988.03637	622.49334	32.463447	31.602062	31.094689
15.4900	15.4950	48	9	987.37902	621.10173	32.492819	31.531978	31.040327
15.4950	15.5000	36	3	986.71797	620.55526	32.540305	31.452611	30.948680
15.5000	15.5050	30	9	986.05511	620.35391	32.595217	31.369415	30.841753
15.5050	15.5100	33	6	985.39199	620.12333	32.628981	31.267299	30.725876
15.5100	15.5150	40	4	984.72681	619.78236	32.583209	31.093808	30.576124
15.5150	15.5200	49	5	984.06162	619.44138	32.537437	30.920318	30.426373
15.5200	15.5250	31	6	983.39727	618.80258	32.476836	30.733062	30.371343
15.5250	15.5300	28	5	982.73326	618.04210	32.410177	30.540182	30.355015
15.5300	15.5350	20	3	982.06948	617.39703	32.343442	30.347248	30.307563
15.5350	15.5400	18	5	981.40581	617.18582	32.276347	30.153897	30.142863
15.5400	15.5450	21	2	980.74240	616.97469	32.209279	29.960621	29.978226
15.5450	15.5500	14	1	980.07948	616.38734	32.142453	29.714612	29.914891
15.5500	15.5550	19	3	979.41682	615.64621	32.075731	29.447066	29.892977
15.5550	15.5600	21	3	978.75434	615.01077	32.009054	29.190797	29.835260
15.5600	15.5650	18	3	978.09256	614.77336	31.942546	28.977008	29.642691
15.5650	15.5700	24	3	977.43078	614.53596	31.876038	28.763219	29.450121
15.5700	15.5750	20	2	976.76960	613.34033	31.809865	28.541983	29.271713
15.5750	15.5800	19	4	976.10878	611.75321	31.743842	28.317745	29.099128
15.5800	15.5850	23	2	975.44765	610.52110	31.677740	28.158287	28.949679
15.5850	15.5900	29	3	974.78652	610.62823	31.611465	28.243087	28.887634
15.5900	15.5950	31	2	974.12527	610.73539	31.545177	28.327902	28.825578
15.5950	15.6000	42	4	973.46454	610.34769	31.479094	28.504801	28.649451
15.6000	15.6050	51	8	972.80403	609.75757	31.413096	28.719369	28.426659
15.6050	15.6100	53	1	972.14373	609.15386	31.347232	28.953772	28.201575
15.6100	15.6150	83	3	971.48426	608.49893	31.281871	29.262940	27.967847
15.6150	15.6200	78	6	970.82478	607.84401	31.216510	29.572108	27.734120
15.6200	15.6250	101	8	970.16529	607.35283	31.150669	29.775861	27.566004
15.6250	15.6300	96	7	969.50549	606.92842	31.084601	29.936577	27.424655
15.6300	15.6350	114	10	968.84510	606.32201	31.018147	30.123771	27.255780
15.6350	15.6400	80	7	968.18142	605.02866	30.950124	30.411067	26.982883
15.6400	15.6450	79	6	967.51773	603.73530	30.882101	30.698363	26.709986
15.6450	15.6500	56	7	966.85417	603.42485	30.814249	30.826383	26.719500
15.6500	15.6550	45	3	966.19066	603.51673	30.746465	30.889206	26.844613
15.6550	15.6600	48	3	965.52969	603.38862	30.678862	30.939120	26.958457
15.6600	15.6650	39	3	964.87760	602.43001	30.611864	30.940356	27.029893
15.6650	15.6700	35	6	964.22576	601.47177	30.544892	30.941592	27.101302
15.6700	15.6750	18	8	963.57482	600.80582	30.478248	30.901395	27.423274
15.6750	15.6800	21	5	962.92430	600.25963	30.411743	30.844235	27.847825
15.6800	15.6850	23	2	962.27394	599.72874	30.345318	30.785092	28.217013
15.6850	15.6900	19	3	961.62415	599.25559	30.279193	30.718462	28.377293
15.6900	15.6950	16	2	960.97436	598.78245	30.213068	30.651833	28.537574
15.6950	15.7000	14	1	960.32540	597.34359	30.147302	30.585505	28.811172
15.7000	15.7050	15	3	959.67691	595.50970	30.081695	30.519314	29.131101
15.7050	15.7100	9	4	959.02831	594.20715	30.016143	30.453194	29.388532
15.7100	15.7150	12	3	958.38053	594.91138	29.950916	30.387464	29.409725
15.7150	15.7200	12	3	957.73262	595.61574	29.885677	30.321721	29.430922
15.7200	15.7250	13	1	957.08548	594.95870	29.820772	30.256350	29.423070
15.7250	15.7300	15	2	956.43864	593.74393	29.756004	30.191131	29.403319
15.7300	15.7350	19	4	955.78454	592.64980	29.691113	30.125751	29.374101
15.7350	15.7400	7	4	955.10310	592.01149	29.625770	30.059771	29.309142
15.7400	15.7450	19	4	954.42140	591.37293	29.560402	29.993766	29.244158
15.7450	15.7500	14	3	953.72154	590.87155	29.494683	29.927482	29.178910
15.7500	15.7550	30	3	953.01386	590.42612	29.428786	29.861049	29.113520
15.7550	15.7600	22	3	952.30669	589.77428	29.363020	29.794724	29.048264
15.7600	15.7650	27	7	951.60030	588.34157	29.297648	29.728698	28.983404
15.7650	15.7700	32	5	950.89390	586.90887	29.232276	29.662671	28.918544
15.7700	15.7750	24	2	950.18853	586.28050	29.167188	29.596968	28.853955
15.7750	15.7800	29	3	949.48357	585.98176	29.102217	29.531397	28.789478
15.7800	15.7850	22	4	948.77901	585.50771	29.037341	29.465928	28.725096
15.7850	15.7900	20	3	948.07523	584.37029	28.972752	29.400774	28.660999
15.7900	15.7950	26	1	947.37171	583.23331	28.908188	29.335645	28.596926
15.7950	15.8000	28	5	946.66765	582.72002	28.843253	29.269913	28.532279
15.8000	15.8050	27	2	945.96342	582.46257	28.778172	29.203941	28.467403
15.8050	15.8100	40	2	945.26149	582.07274	28.712719	29.137664	28.402213
15.8100	15.8150	59	4	944.56828	581.18229	28.645856	29.070241	28.335841
15.8150	15.8200	55	5	943.87507	580.29183	28.578993	29.002817	28.269469
15.8200	15.8250	80	4	943.20023	579.36539	28.513065	28.936195	28.203935
15.8250	15.8300	92	3	942.53305	578.42436	28.447532	28.869913	28.138757
15.8300	15.8350	70	7	941.86587	577.57690	28.382053	28.803734	28.073653
15.8350	15.8400	91	9	941.19990	577.08473	28.316892	28.738062	28.008950
15.8400	15.8450	72	5	940.53380	576.59246	28.251719	28.672376	27.944234
15.8450	15.8500	65	4	939.86845	575.35748	28.186920	28.606995	27.879815
15.8500	15.8550	69	12	939.20340	573.81768	28.122275	28.541738	27.815518
15.8550	15.8600	64	8	938.53854	572.54399	28.057676	28.476561	27.751337
15.8600	15.8650	60	9	937.87450	572.27734	27.993264	28.411698	27.687610
15.8650	15.8700	74	4	937.21021	572.01059	27.928828	28.346811	27.623858
15.8700	15.8750	85	6	936.54622	571.30323	27.864040	28.281462	27.559582
15.8750	15.8800	84	1	935.88199	570.41465	27.799074	28.215890	27.495055
15.8800	15.8850	68	7	935.21824	569.48343	27.734217	28.150424	27.430652
15.8850	15.8900	63	9	934.55526	568.38923	27.669662	28.085255	27.366606
15.8900	15.8950	56	4	933.89227	567.29504	27.605108	28.020085	27.302561
15.8950	15.9000	32	7	933.21779	566.62373	27.540285	27.954770	27.238347
15.9000	15.9050	23	8	932.53859	566.12615	27.475352	27.889395	27.174063
15.9050	15.9100	27	2	931.85924	565.50657	27.410491	27.824059	27.109832
15.9100	15.9150	23	3	931.17853	564.42389	27.345829	27.758799	27.045729
15.9150	15.9200	25	3	930.49809	563.34163	27.281191	27.693564	26.981651
15.9200	15.9250	15	8	929.81847	562.65205	27.216732	27.628635	26.917792
15.9250	15.9300	17	3	929.13924	562.12382	27.152352	27.563836	26.854030
15.9300	15.9350	18	2	928.46025	561.34560	27.088079	27.499131	26.790380
15.9350	15.9400	19	4	927.78218	559.62015	27.024209	27.434778	26.727160
15.9400	15.9450	17	6	927.10410	557.89469	26.960340	27.370426	26.663940
15.9450	15.9500	15	3	926.42687	557.03442	26.896746	27.306414	26.600971
15.9500	15.9550	23	2	925.75011	556.52957	26.833276	27.242554	26.538116
15.9550	15.9600	28	2	925.07337	555.93967	26.769875	27.178775	26.475354
15.9600	15.9650	30	6	924.39796	555.02866	26.706846	27.115418	26.413059
15.9650	15.9700	44	5	923.72242	554.11747	26.643806	27.052050	26.350753
15.9700	15.9750	50	7	923.04832	553.10478	26.581120	26.988994	26.288696
15.9750	15.9800	66	4	922.37482	552.05038	26.518581	26.926068	26.226743
15.9800	15.9850	73	9	921.70187	551.02459	26.456131	26.863242	26.164891
15.9850	15.9900	85	7	921.03118	550.10738	26.394034	26.800808	26.103431
15.9900	15.9950	143	8	920.36023	549.18983	26.331913	26.738351	26.041948
15.9950	16.0000	154	20	919.69022	547.71555	26.270240	26.676213	25.980904
16.0000	16.0050	185	6	919.02024	546.01165	26.208718	26.614173	25.920007
16.0050	16.0100	196	14	918.35072	544.56868	26.147303	26.552267	25.859226
16.0100	16.0150	165	8	917.68171	544.11319	26.086181	26.490755	25.798771
16.0150	16.0200	173	10	917.01295	543.65786	26.025083	26.429267	25.738339
16.0200	16.0250	124	17	916.34243	542.42883	25.964219	26.368079	25.678109
16.0250	16.0300	142	12	915.67092	540.88085	25.903430	26.306991	25.617940
16.0300	16.0350	117	11	914.99989	539.35312	25.842748	26.245972	25.557888
16.0350	16.0400	84	10	914.32946	537.89942	25.782365	26.185103	25.498175
16.0400	16.0450	81	8	913.65929	536.44628	25.722005	26.124257	25.438484
16.0450	16.0500	93	5	912.98981	535.28792	25.661887	26.063734	25.379069
16.0500	16.0550	113	6	912.32096	534.25143	25.601901	26.003376	25.319798
16.0550	16.0600	131	10	911.65495	532.99896	25.541928	25.943002	25.260525
16.0600	16.0650	158	7	910.99949	530.92538	25.481982	25.882542	25.201216
16.0650	16.0700	186	14	910.34403	528.85181	25.422035	25.822083	25.141908
16.0700	16.0750	168	11	909.69412	527.14548	25.362533	25.762045	25.083087
16.0750	16.0800	202	14	909.04639	525.58976	25.303203	25.702171	25.024456
16.0800	16.0850	174	12	908.39865	523.78045	25.243931	25.642348	24.965878
16.0850	16.0900	177	9	907.75208	521.01168	25.184990	25.582830	24.907603
16.0900	16.0950	139	14	907.10550	518.24292	25.126049	25.523312	24.849329
16.0950	16.1000	115	7	906.45739	514.41749	25.067312	25.464018	24.791204
16.1000	16.1050	93	6	905.80873	510.15724	25.008668	25.404826	24.733150
16.1050	16.1100	107	10	905.15945	505.71978	24.950102	25.345710	24.675209
16.1100	16.1150	95	9	904.50680	500.60325	24.891745	25.286798	24.617615
16.1150	16.1200	71	6	903.85391	495.48478	24.833365	25.227864	24.559998
16.1200	16.1250	61	6	903.20217	490.89806	24.775306	25.169234	24.502494
16.1250	16.1300	58	9	902.55054	486.52778	24.717348	25.110697	24.445004
16.1300	16.1350	39	2	901.89944	483.40400	24.659505	25.052268	24.387627
16.1350	16.1400	35	1	901.24912	485.01238	24.601995	24.994140	24.330571
16.1400	16.1450	47	5	900.59904	486.62015	24.544507	24.936035	24.273536
16.1450	16.1500	35	3	899.95654	489.67928	24.487455	24.878409	24.216925
16.1500	16.1550	49	3	899.31691	493.33779	24.430562	24.820959	24.160467
16.1550	16.1600	42	4	898.67776	498.06374	24.373783	24.763606	24.104115
16.1600	16.1650	55	4	898.03931	506.85951	24.317332	24.706516	24.048062
16.1650	16.1700	45	4	897.40110	515.65193	24.260903	24.649447	23.992031
16.1700	16.1750	43	4	896.76256	522.69801	24.204109	24.592079	23.935694
16.1750	16.1800	33	4	896.12421	529.02074	24.147195	24.534618	23.879260
16.1800	16.1850	44	5	895.48503	534.97651	24.090317	24.477210	23.822856
16.1850	16.1900	29	2	894.84239	539.53733	24.033553	24.419983	23.766543
16.1900	16.1950	29	1	894.19974	544.09816	23.976789	24.362755	23.710229
16.1950	16.2000	24	2	893.55584	546.14267	23.920331	24.305714	23.654170
16.2000	16.2050	18	2	892.91130	547.15181	23.863989	24.248740	23.598206
16.2050	16.2100	17	2	892.26675	547.81213	23.807698	24.191846	23.542305
16.2100	16.2150	18	4	891.62330	547.14471	23.751708	24.135360	23.486745
16.2150	16.2200	19	6	890.97985	546.47728	23.695717	24.078874	23.431184
16.2200	16.2250	22	3	890.32943	545.77824	23.639776	24.022370	23.375681
16.2250	16.2300	19	4	889.67625	545.06626	23.583864	23.965868	23.320210
16.2300	16.2350	18	2	889.01942	544.36334	23.527949	23.909362	23.264738
16.2350	16.2400	19	1	888.34779	543.69382	23.471935	23.852764	23.209180
16.2400	16.2450	24	2	887.67589	543.02404	23.415900	23.796143	23.153600
16.2450	16.2500	35	3	887.00510	542.33623	23.360150	23.739809	23.098479
16.2500	16.2550	33	4	886.33440	541.64060	23.304487	23.683563	23.043516
16.2550	16.2600	24	3	885.66423	540.94730	23.248934	23.627423	22.988603
16.2600	16.2650	23	2	884.99485	540.26157	23.193691	23.571585	22.933781
16.2650	16.2700	29	3	884.32572	539.57610	23.138469	23.515767	22.878980
16.2700	16.2750	29	2	883.67360	538.89466	23.083728	23.460389	22.824630
16.2750	16.2800	23	1	883.02826	538.21462	23.029165	23.405171	22.770444
16.2800	16.2850	33	3	882.38435	537.53945	22.974741	23.350057	22.716362
16.2850	16.2900	38	5	881.74473	536.88157	22.920749	23.295236	22.662573
16.2900	16.2950	20	7	881.10535	536.22395	22.866778	23.240436	22.608804
16.2950	16.3000	29	4	880.46636	535.55149	22.812932	23.185910	22.555265
16.3000	16.3050	26	5	879.82788	534.87328	22.759168	23.131527	22.501850
16.3050	16.3100	34	4	879.18908	534.19642	22.705482	23.077207	22.448503
16.3100	16.3150	41	5	878.54880	533.52449	22.652070	23.023113	22.395397
16.3150	16.3200	19	5	877.90852	532.85256	22.598658	22.969018	22.342291
16.3200	16.3250	27	2	877.26604	532.19922	22.545381	22.915120	22.289409
16.3250	16.3300	30	1	876.62253	531.55344	22.492150	22.861295	22.236612
16.3300	16.3350	31	3	875.97906	530.90255	22.438976	22.807528	22.183862
16.3350	16.3400	23	2	875.33690	530.23339	22.386119	22.754082	22.131386
16.3400	16.3450	33	4	874.69474	529.56424	22.333261	22.700636	22.078910
16.3450	16.3500	21	3	874.05308	528.89972	22.280680	22.647421	22.026693
16.3500	16.3550	22	5	873.41173	528.23723	22.228223	22.594309	21.974591
16.3550	16.3600	23	3	872.77727	527.58066	22.176003	22.541459	21.922739
16.3600	16.3650	23	4	872.16813	526.94566	22.124615	22.489531	21.871764
16.3650	16.3700	14	3	871.55876	526.31042	22.073208	22.437584	21.820771
16.3700	16.3750	16	3	870.95120	525.67001	22.022159	22.385921	21.770097
16.3750	16.3800	12	1	870.34406	525.02712	21.971231	22.334347	21.719528
16.3800	16.3850	11	2	869.73736	524.38499	21.920370	22.282868	21.669047
16.3850	16.3900	12	2	869.13126	523.74455	21.869667	22.231653	21.618807
16.3900	16.3950	5	0	868.52538	523.10436	21.818984	22.180458	21.568587
16.3950	16.4000	6	0	867.92025	522.46244	21.768021	22.128948	21.518036
16.4000	16.4050	8	2	867.31519	521.81955	21.716921	22.077288	21.467328
16.4050	16.4100	6	3	866.70680	521.17406	21.665663	22.025475	21.416468
16.4100	16.4150	14	3	866.08459	520.51746	21.613699	21.972978	21.364933
16.4150	16.4200	5	1	865.46261	519.86110	21.561756	21.920501	21.313419
16.4200	16.4250	8	4	864.84129	519.20639	21.510016	21.868344	21.262126
16.4250	16.4300	10	3	864.22059	518.55271	21.458388	21.816348	21.210953
16.4300	16.4350	11	3	863.58659	517.89140	21.406514	21.764081	21.159530
16.4350	16.4400	4	2	862.90151	517.20068	21.353680	21.710757	21.107134
16.4400	16.4450	14	0	862.21643	516.50995	21.300845	21.657434	21.054738
16.4450	16.4500	13	1	861.50620	515.80578	21.247676	21.603908	21.001990
16.4500	16.4550	12	1	860.78545	515.09593	21.194360	21.550291	20.949089
16.4550	16.4600	13	0	860.06470	514.38648	21.138659	21.496690	20.896257
16.4600	16.4650	7	5	859.34527	513.67982	21.073951	21.443256	20.843785
16.4650	16.4700	12	2	858.62584	512.97316	21.009244	21.389821	20.791312
16.4700	16.4750	15	2	857.90706	512.26807	20.932864	21.336626	20.739065
16.4750	16.4800	11	3	857.18866	511.56374	20.851664	21.283538	20.686919
16.4800	16.4850	9	1	856.47573	510.86316	20.759392	21.230685	20.634982
16.4850	16.4900	15	3	855.78264	510.17584	20.624709	21.178653	20.583767
16.4900	16.4950	2	3	855.08928	509.48826	20.489976	21.126601	20.532533
16.4950	16.5000	9	1	854.41236	508.81171	20.299503	21.075086	20.481959
16.5000	16.5050	6	2	853.74187	508.13936	20.085877	21.023766	20.431630
16.5050	16.5100	5	2	853.07189	507.46791	19.876453	20.972547	20.381409
16.5100	16.5150	13	3	852.40263	506.79867	19.682707	20.921621	20.331509
16.5150	16.5200	3	3	851.73362	506.12969	19.489036	20.870714	20.281628
16.5200	16.5250	6	1	851.06535	505.46235	19.225885	20.820041	20.232067
16.5250	16.5300	7	1	850.39713	504.79544	18.933875	20.769444	20.182621
16.5300	16.5350	5	0	849.72276	504.12535	18.659332	20.718790	20.133107
16.5350	16.5400	0	3	849.02358	503.44183	18.451129	20.667825	20.083243
16.5400	16.5450	3	5	848.32467	502.75856	18.243005	20.616880	20.033397
16.5450	16.5500	7	1	847.59349	502.05799	18.012709	20.565377	19.983004
16.5500	16.5550	6	1	846.84933	501.35062	17.773355	20.513671	19.932412
16.5550	16.5600	7	1	846.10547	500.64384	17.536484	20.462031	19.881883
16.5600	16.5650	8	3	845.36246	499.93901	17.309037	20.410619	19.831583
16.5650	16.5700	3	2	844.61945	499.23418	17.081591	20.359208	19.781283
16.5700	16.5750	5	5	843.87805	498.52827	16.918256	20.307537	19.730668
16.5750	16.5800	5	2	843.13721	497.82180	16.781416	20.255750	19.679915
16.5800	16.5850	10	2	842.44024	497.14103	16.625032	20.205007	19.630187
16.5850	16.5900	13	3	841.91237	496.55982	16.394171	20.158351	19.584470
16.5900	16.5950	12	3	841.38451	495.97862	16.163310	20.111696	19.538754
16.5950	16.6000	11	1	840.91721	495.43371	16.019703	20.066714	19.494631
16.6000	16.6050	9	3	840.47510	494.90393	15.912295	20.022434	19.451175
16.6050	16.6100	7	7	840.03331	494.37453	15.789491	19.978231	19.407798
16.6100	16.6150	7	2	839.59211	493.84581	15.607602	19.934260	19.364655
16.6150	16.6200	10	2	839.15074	493.31690	15.425644	19.890271	19.321497
16.6200	16.6250	16	1	838.65615	492.75742	15.332873	19.845226	19.277361
16.6250	16.6300	10	3	838.13945	492.18520	15.277015	19.799736	19.232813
16.6300	16.6350	17	2	837.60552	491.60309	15.243513	19.750889	19.187908
16.6350	16.6400	4	3	837.00634	490.98392	15.295762	19.689248	19.141696
16.6400	16.6450	8	2	836.40739	490.36499	15.347991	19.627630	19.095502
16.6450	16.6500	8	3	835.80908	489.74754	15.336310	19.564347	19.049600
16.6500	16.6550	10	5	835.21081	489.13046	15.298119	19.500350	19.003801
16.6550	16.6600	12	0	834.61122	488.51304	15.295596	19.399186	18.958031
16.6600	16.6650	9	2	834.00542	487.89316	15.429777	19.155382	18.912284
16.6650	16.6700	12	4	833.39986	487.27350	15.563906	18.911670	18.866554
16.6700	16.6750	13	3	832.79539	486.65568	15.618169	18.694320	18.821035
16.6750	16.6800	14	1	832.19170	486.03895	15.639306	18.488011	18.775626
16.6800	16.6850	16	2	831.58847	485.42285	15.667347	18.266649	18.730295
16.6850	16.6900	12	3	830.98680	484.80891	15.721908	17.987416	18.685239
16.6900	16.6950	11	3	830.38512	484.19496	15.776468	17.708183	18.640182
16.6950	16.7000	18	3	829.78385	483.57953	15.848237	17.402285	18.595097
16.7000	16.7050	15	5	829.18265	482.96337	15.927148	17.085289	18.549992
16.7050	16.7100	16	8	828.58449	482.34912	15.972579	16.792112	18.504992
16.7100	16.7150	10	3	827.99906	481.74329	15.889544	16.590811	18.460478
16.7150	16.7200	14	0	827.41362	481.13746	15.806509	16.389510	18.415964
16.7200	16.7250	16	1	826.73150	480.47668	15.846333	16.192266	18.366358
16.7250	16.7300	25	3	826.00932	479.79318	15.937173	15.996740	18.314646
16.7300	16.7350	26	4	825.26949	479.09990	15.991582	15.808459	18.234284
16.7350	16.7400	40	7	824.46088	478.36815	15.906381	15.647689	18.043952
16.7400	16.7450	70	4	823.65196	477.63612	15.821147	15.486858	17.853548
16.7450	16.7500	94	5	822.86457	476.91818	15.857357	15.313480	17.536901
16.7500	16.7550	119	13	822.08599	476.20598	15.943954	15.134868	17.167829
16.7550	16.7600	174	10	821.34697	475.51689	16.003894	14.957956	16.812161
16.7600	16.7650	190	14	820.76101	474.91765	15.961319	14.787827	16.508514
16.7650	16.7700	235	18	820.17528	474.31865	15.918760	14.617764	16.204983
16.7700	16.7750	347	23	819.59032	473.72138	15.868401	14.472305	15.920346
16.7750	16.7800	339	19	819.00546	473.12460	15.814780	14.337016	15.643452
16.7800	16.7850	327	18	818.42105	472.52848	15.778893	14.200237	15.387694
16.7850	16.7900	304	18	817.83735	471.93382	15.811106	14.057483	15.212699
16.7900	16.7950	219	14	817.25388	471.33939	15.843307	13.914783	15.037772
16.7950	16.8000	207	18	816.67950	470.75169	15.792879	13.930666	14.877635
16.8000	16.8050	134	16	816.10922	470.16710	15.708162	14.012404	14.723728
16.8050	16.8100	109	9	815.53468	469.58040	15.644114	14.086500	14.573738
16.8100	16.8150	92	10	814.94356	468.98535	15.659555	14.131229	14.438764
16.8150	16.8200	75	3	814.35244	468.39030	15.674995	14.175959	14.303789
16.8200	16.8250	59	3	813.71903	467.76930	15.627453	14.223867	14.166579
16.8250	16.8300	46	8	813.06796	467.13743	15.553766	14.273101	14.028418
16.8300	16.8350	48	1	812.41689	466.50586	15.489013	14.341155	13.890965
16.8350	16.8400	35	5	811.76700	465.87657	15.458707	14.481383	13.756485
16.8400	16.8450	28	0	811.11711	465.24728	15.428401	14.621611	13.622005
16.8450	16.8500	21	7	810.47320	464.62251	15.454577	14.691351	13.488193
16.8500	16.8550	21	10	809.83188	463.99970	15.504247	14.731754	13.354680
16.8550	16.8600	20	2	809.19135	463.37781	15.524783	14.775965	13.230241
16.8600	16.8650	14	2	808.55291	462.75854	15.433408	14.834873	13.140483
16.8650	16.8700	9	1	807.91424	462.13904	15.341997	14.893804	13.050691
16.8700	16.8750	17	2	807.27645	461.52123	15.328681	14.904837	13.017116
16.8750	16.8800	10	6	806.63894	460.90403	15.347796	14.895979	13.006883
16.8800	16.8850	14	4	806.00131	460.28704	15.345344	14.888968	13.040786
16.8850	16.8900	14	1	805.36414	459.67178	15.259942	14.889074	13.244397
16.8900	16.8950	18	8	804.72721	459.05676	15.174572	14.889181	13.447931
16.8950	16.9000	13	2	804.08902	458.44256	15.155342	14.917707	13.596464
16.9000	16.9050	10	1	803.45005	457.82847	15.163611	14.958064	13.722181
16.9050	16.9100	10	1	802.81156	457.21508	15.168685	14.989369	13.841088
16.9100	16.9150	11	4	802.17369	456.60324	15.161473	14.985892	13.934004
16.9150	16.9200	11	1	801.53607	455.99163	15.154264	14.982416	14.026885
16.9200	16.9250	16	1	800.90893	455.38723	15.107333	15.007446	14.106183
16.9250	16.9300	13	3	800.28650	454.78616	15.043903	15.044318	14.179788
16.9300	16.9350	16	5	799.66833	454.18782	14.997557	15.062528	14.231744
16.9350	16.9400	13	2	799.06639	453.59978	15.017049	15.008797	14.200257
16.9400	16.9450	5	3	798.46444	453.01174	15.036541	14.955066	14.168770
16.9450	16.9500	18	0	797.86969	452.42916	14.984378	14.931486	14.159489
16.9500	16.9550	7	4	797.27783	451.84875	14.902430	14.920431	14.159434
16.9550	16.9600	16	4	796.68594	451.26852	14.842918	14.914461	14.153857
16.9600	16.9650	13	6	796.09501	450.69010	14.869856	14.928070	14.127040
16.9650	16.9700	26	3	795.50409	450.11167	14.896794	14.941678	14.100223
16.9700	16.9750	23	8	794.91358	449.53449	14.879364	14.925683	14.094521
16.9750	16.9800	23	4	794.32334	448.95792	14.843461	14.897362	14.097613
16.9800	16.9850	21	3	793.73238	448.38137	14.799624	14.874464	14.096751
16.9850	16.9900	24	5	793.13773	447.80406	14.725213	14.872390	14.080681
16.9900	16.9950	22	4	792.54287	447.22654	14.650774	14.870316	14.064605
16.9950	17.0000	32	7	791.91773	446.48717	14.629028	14.799542	14.025073
17.0000	17.0050	30	5	791.27991	445.68037	14.629195	14.700180	13.975778
17.0050	17.0100	46	8	790.63933	444.85838	14.612325	14.618081	13.931523
17.0100	17.0150	55	9	789.98902	443.97903	14.529793	14.602654	13.906761
17.0150	17.0200	91	10	789.33896	443.10002	14.447292	14.587233	13.882008
17.0200	17.0250	105	8	788.71927	442.37896	14.423758	14.578801	13.854168
17.0250	17.0300	143	9	788.11201	441.72343	14.424783	14.573278	13.825031
17.0300	17.0350	226	19	787.50642	441.06690	14.401239	14.556400	13.797280
17.0350	17.0400	260	12	786.90615	440.40529	14.282826	14.495671	13.774828
17.0400	17.0450	313	17	786.30612	439.74392	14.164459	14.434965	13.752385
17.0450	17.0500	416	26	785.73270	439.22189	14.120214	14.405183	13.749051
17.0500	17.0550	440	29	785.17068	438.75817	14.106866	14.388297	13.753678
17.0550	17.0600	419	31	784.61218	438.28056	14.101082	14.363093	13.744694
17.0600	17.0650	429	37	784.06708	437.74917	14.124484	14.305776	13.683183
17.0650	17.0700	358	25	783.52197	437.21779	14.147887	14.248460	13.621673
17.0700	17.0750	321	26	783.02056	436.90310	14.101379	14.252137	13.633633
17.0750	17.0800	340	22	782.53724	436.67853	14.025777	14.281192	13.676163
17.0800	17.0850	346	20	782.04632	436.43423	13.964552	14.292235	13.701198
17.0850	17.0900	349	26	781.52696	436.11430	13.958905	14.233770	13.658695
17.0900	17.0950	388	22	781.00760	435.79437	13.953257	14.175304	13.616192
17.0950	17.1000	406	21	780.48499	435.45667	13.922548	14.160597	13.624482
17.1000	17.1050	421	32	779.96110	435.11162	13.881384	14.164154	13.653969
17.1050	17.1100	397	24	779.42806	434.71715	13.841536	14.163188	13.668362
17.1100	17.1150	330	17	778.85891	434.13155	13.806704	14.144776	13.624567
17.1150	17.1200	239	12	778.28954	433.54573	13.771858	14.126358	13.580755
17.1200	17.1250	187	12	777.73093	432.99371	13.738337	14.066616	13.554446
17.1250	17.1300	131	14	777.17671	432.45567	13.705362	13.989648	13.535425
17.1300	17.1350	108	12	776.63118	431.95801	13.667155	13.935263	13.518841
17.1350	17.1400	83	6	776.12005	431.61699	13.608793	13.968186	13.511692
17.1400	17.1450	63	5	775.60911	431.27611	13.550454	14.001096	13.504546
17.1450	17.1500	54	4	775.12680	431.08234	13.559247	13.997403	13.489124
17.1500	17.1550	42	9	774.65625	430.94990	13.596059	13.978433	13.470243
17.1550	17.1600	48	6	774.19024	430.83968	13.614379	13.963271	13.455908
17.1600	17.1650	40	7	773.74092	430.81517	13.561244	13.962801	13.459123
17.1650	17.1700	15	4	773.29177	430.79067	13.508129	13.962331	13.462337
17.1700	17.1750	25	3	772.78388	430.39841	13.507528	13.926927	13.446726
17.1750	17.1800	24	5	772.25175	429.85288	13.528842	13.876963	13.423268
17.1800	17.1850	12	7	771.72239	429.31457	13.528951	13.834872	13.395486
17.1850	17.1900	17	1	771.20351	428.80398	13.446992	13.823234	13.350961
17.1900	17.1950	14	4	770.68463	428.29339	13.365033	13.811596	13.306437
17.1950	17.2000	8	4	770.14046	427.65098	13.296752	13.786524	13.280386
17.2000	17.2050	12	2	769.58565	426.95355	13.234160	13.755851	13.262030
17.2050	17.2100	17	4	769.05827	426.28672	13.189504	13.720943	13.240937
17.2100	17.2150	24	5	768.63781	425.73939	13.214219	13.669742	13.209316
17.2150	17.2200	17	5	768.21735	425.19205	13.238935	13.618541	13.177695
17.2200	17.2250	10	3	767.80336	423.49977	13.215999	13.621256	13.175244
17.2250	17.2300	11	3	767.39213	421.32918	13.173150	13.646506	13.184986
17.2300	17.2350	16	5	766.98486	418.65158	13.136826	13.660004	13.184509
17.2350	17.2400	13	2	766.59230	414.01065	13.125667	13.628107	13.144541
17.2400	17.2450	11	0	766.19959	409.36796	13.114503	13.596198	13.104557
17.2450	17.2500	11	4	765.79579	402.96226	13.079734	13.561830	13.088930
17.2500	17.2550	11	1	765.38730	395.81997	13.035111	13.526431	13.083463
17.2550	17.2600	7	1	764.93979	388.94058	12.989492	13.497433	13.071902
17.2600	17.2650	7	0	764.34193	383.08870	12.940087	13.493249	13.036776
17.2650	17.2700	8	5	763.74430	377.23906	12.890700	13.489067	13.001664
17.2700	17.2750	8	2	763.01145	372.04884	12.871058	13.435306	12.950732
17.2750	17.2800	8	0	762.22184	367.13211	12.863836	13.360812	12.893172
17.2800	17.2850	8	0	761.42995	362.34517	12.837179	13.297040	12.845986
17.2850	17.2900	10	1	760.62776	358.05168	12.735243	13.274653	12.838869
17.2900	17.2950	7	1	759.82588	353.75982	12.633345	13.252274	12.831755
17.2950	17.3000	9	3	759.05096	350.35450	12.603749	13.208517	12.788765
17.3000	17.3050	7	2	758.28773	347.32149	12.604383	13.155851	12.730807
17.3050	17.3100	7	0	757.56500	344.27720	12.581615	13.113087	12.683115
17.3100	17.3150	7	1	756.99900	341.18801	12.468127	13.108693	12.675199
17.3150	17.3200	9	0	756.43300	338.09881	12.354640	13.104300	12.667283
17.3200	17.3250	10	1	755.89638	335.25835	12.333313	13.076726	12.649697
17.3250	17.3300	10	3	755.37195	332.52122	12.350439	13.039475	12.628074
17.3300	17.3350	12	2	754.84984	329.77805	12.355912	13.004273	12.610645
17.3350	17.3400	4	2	754.33765	327.01655	12.316246	12.977069	12.609490
17.3400	17.3450	6	2	753.82547	324.25506	12.276580	12.949866	12.608334
17.3450	17.3500	6	0	753.30910	322.12010	12.194621	12.941469	12.594459
17.3500	17.3550	7	0	752.79107	320.24772	12.094972	12.940946	12.575263
17.3550	17.3600	9	0	752.24170	318.69082	12.010048	12.925475	12.551166
17.3600	17.3650	9	1	751.57027	318.35251	11.981982	12.852127	12.508067
17.3650	17.3700	18	0	750.89858	318.01408	11.953905	12.778751	12.464952
17.3700	17.3750	8	2	750.19132	318.44293	11.810803	12.734736	12.432558
17.3750	17.3800	16	0	749.46907	319.19259	11.619597	12.702988	12.404640
17.3800	17.3850	16	1	748.75107	320.77093	11.452995	12.666641	12.372890
17.3850	17.3900	9	1	748.05060	325.56302	11.382132	12.612500	12.326316
17.3900	17.3950	17	3	747.35039	330.35329	11.311295	12.558379	12.279760
17.3950	17.4000	10	2	746.67057	333.64757	11.196696	12.503516	12.242996
17.4000	17.4050	5	1	745.99904	336.31672	11.063730	12.448322	12.210319
17.4050	17.4100	12	2	745.33088	338.88079	10.938750	12.403005	12.182364
17.4100	17.4150	18	3	744.67456	341.04190	10.844530	12.395930	12.172678
17.4150	17.4200	9	0	744.01848	343.20219	10.750345	12.388858	12.162996
17.4200	17.4250	8	2	743.38677	344.65274	10.723920	12.349061	12.126823
17.4250	17.4300	5	0	742.76560	345.80556	10.725858	12.295594	12.079585
17.4300	17.4350	8	3	742.13758	346.81914	10.715675	12.247576	12.040781
17.4350	17.4400	8	3	741.48275	347.29240	10.658420	12.220703	12.034712
17.4400	17.4450	9	3	740.82792	347.76565	10.601166	12.193830	12.028644
17.4450	17.4500	7	1	740.18759	348.64372	10.629420	12.152119	11.983151
17.4500	17.4550	7	1	739.55322	349.69121	10.693434	12.104197	11.921167
17.4550	17.4600	10	4	738.91169	350.44459	10.742650	12.056959	11.867554
17.4600	17.4650	7	0	738.24354	350.05545	10.734356	12.012456	11.846525
17.4650	17.4700	7	0	737.57539	349.66630	10.726062	11.967954	11.825496
17.4700	17.4750	15	1	736.61772	349.88950	10.746886	11.921418	11.771618
17.4750	17.4800	9	1	735.53884	350.36933	10.779911	11.874037	11.703981
17.4800	17.4850	8	2	734.45924	350.65804	10.824152	11.821416	11.638138
17.4850	17.4900	10	4	733.37526	350.20603	10.911951	11.748392	11.579161
17.4900	17.4950	6	2	732.29087	349.75386	10.999783	11.675341	11.520161
17.4950	17.5000	10	2	731.21694	349.11443	11.047327	11.644027	11.482696
17.5000	17.5050	15	2	730.14722	348.39652	11.078014	11.630179	11.454241
17.5050	17.5100	12	1	729.21367	347.97668	11.135370	11.598896	11.420436
17.5100	17.5150	10	2	728.81056	348.71557	11.296259	11.499919	11.365898
17.5150	17.5200	12	3	728.40760	349.45417	11.457086	11.400980	11.311380
17.5200	17.5250	9	1	728.36442	349.47532	11.548447	11.341202	11.262285
17.5250	17.5300	8	3	728.47198	349.19588	11.610737	11.297808	11.215443
17.5300	17.5350	9	2	728.58564	349.09121	11.683926	11.248562	11.169125
17.5350	17.5400	13	0	728.72324	349.66514	11.799583	11.176489	11.124759
17.5400	17.5450	9	2	728.86080	350.23885	11.915195	11.104443	11.080411
17.5450	17.5500	7	1	728.95015	350.04386	12.029220	10.995860	11.014611
17.5500	17.5550	8	0	729.01928	349.52699	12.142519	10.872032	10.939863
17.5550	17.5600	13	1	728.95527	349.01836	12.236379	10.751161	10.871777
17.5600	17.5650	5	0	728.37345	348.54158	12.254665	10.641748	10.829582
17.5650	17.5700	13	3	727.79163	348.06481	12.272951	10.532335	10.787388
17.5700	17.5750	8	2	727.20569	347.99657	12.303605	10.401877	10.700134
17.5750	17.5800	8	1	726.61793	348.09930	12.339441	10.262590	10.594007
17.5800	17.5850	10	0	726.02927	347.99125	12.365372	10.128254	10.501682
17.5850	17.5900	16	3	725.43822	347.06451	12.352779	10.013400	10.463150
17.5900	17.5950	24	2	724.84718	346.13777	12.340186	9.8985463	10.424617
17.5950	17.6000	24	4	724.26646	346.14957	12.329444	9.8549608	10.354242
17.6000	17.6050	29	2	723.69019	346.55529	12.319482	9.8412954	10.270513
17.6050	17.6100	47	1	723.11927	346.64603	12.305979	9.8286769	10.181633
17.6100	17.6150	48	7	722.56833	345.51318	12.278706	9.8201068	10.072611
17.6150	17.6200	56	2	722.01718	344.37990	12.251423	9.8115335	9.9635465
17.6200	17.6250	54	6	721.49708	344.13550	12.219881	9.8331689	9.8582460
17.6250	17.6300	49	3	720.98989	344.26354	12.186549	9.8674665	9.7545059
17.6300	17.6350	56	1	720.48426	344.34359	12.153692	9.8982629	9.6464056
17.6350	17.6400	37	2	719.98540	344.23666	12.122732	9.9153800	9.5214876
17.6400	17.6450	39	2	719.48673	344.12977	12.091784	9.9324905	9.3966172
17.6450	17.6500	21	3	718.98312	343.61363	12.059377	9.9912250	9.2616042
17.6500	17.6550	16	2	718.47723	342.92547	12.026345	10.067459	9.1222810
17.6550	17.6600	14	0	717.97195	342.34782	11.992075	10.137796	9.0135336
17.6600	17.6650	16	2	717.46804	342.19946	11.952924	10.185299	9.0236585
17.6650	17.6700	25	4	716.96432	342.05115	11.913789	10.232785	9.0337795
17.6700	17.6750	15	2	716.44612	341.04593	11.867315	10.292398	9.0339297
17.6750	17.6800	4	1	715.92212	339.68143	11.817784	10.357072	9.0298932
17.6800	17.6850	8	0	715.31250	338.51939	11.765158	10.424187	9.0327998
17.6850	17.6900	6	1	714.36862	338.14677	11.700431	10.500858	9.0627963
17.6900	17.6950	8	0	713.42474	337.77415	11.635704	10.577529	9.0927929
17.6950	17.7000	3	2	712.41044	336.54188	11.559185	10.628775	9.0933246
17.7000	17.7050	11	0	711.36646	334.94889	11.477707	10.669367	9.0814992
17.7050	17.7100	11	2	710.36924	333.37303	11.402834	10.721200	9.0822559
17.7100	17.7150	10	1	709.55606	331.86688	11.353824	10.816716	9.1320182
17.7150	17.7200	4	1	708.74288	330.36073	11.304813	10.912232	9.1817804
17.7200	17.7250	6	1	707.97617	329.32430	11.286697	11.040055	9.2469821
17.7250	17.7300	8	0	707.22915	328.48565	11.281582	11.181450	9.3186689
17.7300	17.7350	6	3	706.49101	327.48726	11.277595	11.302964	9.3952909
17.7350	17.7400	9	1	705.78640	325.86498	11.278002	11.347193	9.4912566
17.7400	17.7450	8	1	705.08152	324.24208	11.278408	11.391438	9.5872589
17.7450	17.7500	7	1	704.40288	323.66441	11.282390	11.436239	9.7113724
17.7500	17.7550	11	0	703.73514	323.52547	11.287872	11.481281	9.8473081
17.7550	17.7600	13	2	703.07441	323.14616	11.294361	11.521032	9.9850625
17.7600	17.7650	12	3	702.44201	321.83003	11.304762	11.540092	10.129704
17.7650	17.7700	10	2	701.80984	320.51440	11.315158	11.559146	10.274290
17.7700	17.7750	5	3	701.11063	319.33847	11.304084	11.550868	10.385512
17.7750	17.7800	17	0	700.38295	318.22084	11.283977	11.531094	10.482746
17.7800	17.7850	10	3	699.63222	316.98524	11.256856	11.504247	10.582296
17.7850	17.7900	8	4	698.79010	315.28661	11.202292	11.449729	10.691075
17.7900	17.7950	10	0	697.94830	313.58863	11.147749	11.395231	10.799813
17.7950	17.8000	11	1	697.11127	311.83252	11.092732	11.340201	10.825311
17.8000	17.8050	14	1	696.27670	310.05290	11.037544	11.284977	10.815781
17.8050	17.8100	8	0	695.43760	308.39148	10.980437	11.227818	10.802728
17.8100	17.8150	7	1	694.58048	307.19119	10.915813	11.163079	10.775906
17.8150	17.8200	3	0	693.72337	305.99090	10.851188	11.098340	10.749085
17.8200	17.8250	5	0	692.93988	304.17640	10.803252	11.050436	10.713967
17.8250	17.8300	5	1	692.18720	302.10367	10.762317	11.009594	10.675359
17.8300	17.8350	3	1	691.45690	300.37790	10.726883	10.974289	10.642100
17.8350	17.8400	9	2	690.81533	300.00918	10.712982	10.960650	10.629774
17.8400	17.8450	4	1	690.17376	299.64046	10.699080	10.947011	10.617448
17.8450	17.8500	8	1	689.62533	299.23895	10.708221	10.956554	10.627483
17.8500	17.8550	4	1	689.11621	298.82370	10.727063	10.975858	10.646934
17.8550	17.8600	4	0	688.63249	298.44101	10.752468	11.001776	10.672791
17.8600	17.8650	8	0	688.24726	298.18485	10.803535	11.053565	10.723697
17.8650	17.8700	4	2	687.86188	297.92859	10.854621	11.105374	10.774623
17.8700	17.8750	5	1	687.47596	298.17840	10.906983	11.158430	10.826720
17.8750	17.8800	4	0	687.08976	298.64117	10.959890	11.212019	10.879318
17.8800	17.8850	5	0	686.66117	298.72701	10.997144	11.249838	10.916647
17.8850	17.8900	0	0	686.06741	297.33871	10.973136	11.225935	10.894214
17.8900	17.8950	3	1	685.47389	295.95095	10.949136	11.202040	10.871789
17.8950	17.9000	4	0	684.79139	294.86726	10.900234	11.153031	10.825015
17.9000	17.9050	2	1	684.07116	293.91125	10.840823	11.093423	10.767965
17.9050	17.9100	5	1	683.38701	292.88567	10.790527	11.042997	10.719801
17.9100	17.9150	7	2	682.84272	291.58609	10.775788	11.028391	10.706300
17.9150	17.9200	0	0	682.29863	290.28701	10.761054	11.013791	10.692804
17.9200	17.9250	2	1	681.99419	290.20755	10.805311	11.058677	10.736949
17.9250	17.9300	2	1	681.79082	290.64159	10.874378	11.128583	10.805338
17.9300	17.9350	2	0	681.61364	291.35634	10.960030	11.215188	10.889898
17.9350	17.9400	5	2	681.53892	293.17030	11.110641	11.367203	11.037807
17.9400	17.9450	2	0	681.46420	294.98426	11.261253	11.519218	11.185716
17.9450	17.9500	5	0	681.08574	295.58290	11.366265	11.625219	11.289037
17.9500	17.9550	7	0	680.57949	295.67053	11.452117	11.711885	11.373623
17.9550	17.9600	3	1	680.01389	295.59379	11.512146	11.772535	11.432980
17.9600	17.9650	2	3	679.21734	294.87463	11.471107	11.731362	11.393590
17.9650	17.9700	6	1	678.42079	294.15547	11.430067	11.690188	11.354200
17.9700	17.9750	1	0	677.67707	292.27234	11.337793	11.597099	11.263945
17.9750	17.9800	3	1	676.95576	289.89833	11.223913	11.482118	11.152241
17.9800	17.9850	4	2	676.26423	287.87018	11.124929	11.382146	11.055083
17.9850	17.9900	6	0	675.68816	287.19210	11.084074	11.340749	11.014689
17.9900	17.9950	3	1	675.11186	286.51376	11.043203	11.299335	10.974280
17.9950	18.0000	9	0	674.72941	287.28655	11.110982	11.367346	11.039946
