# do not edit -- automatically generated Wed Aug 21 13:05:38 2019 from /susfu/kashyap/solar/ISSI/Capella_O7/binned_11t18.pro
# 
# events in wavelength region [14.00,18.00] Ang
# 
# BACKSCAL = 15.6250
#columns are:
#WLOW: wavelength grid bin lower bound [Angstrom]
#WHIGH: wavelength grid bin upper bound [Angstrom]
#SRCCT: counts in bin [ct]
#BKGCT: background counts in bin [ct]
#EA{p|n}_OBSID: effective area for each ObsID [cm^2 ksec]
WLOW	WHIGH	SRCCT	BKGCT	EAp_00055	EAp_08319	EAp_18358	EAp_18360	EAp_18362
N	N	N	N	N	N	N	N	N
14.0000	14.0050	91	12	1914.4527	1435.0510	88.818487	85.504727	86.017482
14.0050	14.0100	95	13	1907.6435	1434.4374	88.663706	84.929266	87.316901
14.0100	14.0150	118	11	1897.0599	1433.8967	88.397761	84.157698	88.706311
14.0150	14.0200	123	13	1886.4804	1433.3561	88.131918	83.386425	90.095192
14.0200	14.0250	132	11	1871.4432	1433.0075	88.053046	82.916804	90.831645
14.0250	14.0300	135	15	1854.6196	1432.7359	88.049154	82.568179	91.306422
14.0300	14.0350	158	8	1836.0739	1432.4532	87.970274	82.233483	91.655980
14.0350	14.0400	163	14	1811.1682	1432.1299	87.615252	81.949697	91.544951
14.0400	14.0450	143	20	1786.2721	1431.8066	87.260366	81.666019	91.433964
14.0450	14.0500	157	18	1761.1371	1431.4327	87.212745	82.132401	91.324712
14.0500	14.0550	124	13	1735.9197	1431.0385	87.288391	82.899372	91.216215
14.0550	14.0600	149	14	1713.1631	1430.5955	87.274867	83.706503	91.105102
14.0600	14.0650	145	10	1699.4908	1429.9736	86.933664	84.659779	90.984571
14.0650	14.0700	149	13	1685.8185	1429.3517	86.592461	85.613055	90.864040
14.0700	14.0750	132	11	1682.4883	1428.6297	86.446115	86.369234	90.745642
14.0750	14.0800	100	15	1683.3104	1427.8680	86.378047	87.045912	90.628164
14.0800	14.0850	110	13	1685.2691	1427.1074	86.270311	87.794361	90.510800
14.0850	14.0900	84	13	1691.4056	1426.3520	86.016838	88.805502	90.394069
14.0900	14.0950	92	12	1697.5445	1425.5963	85.763269	89.817029	90.277292
14.0950	14.1000	94	15	1709.7466	1424.8225	85.415924	90.448190	90.159418
14.1000	14.1050	106	11	1724.3848	1424.0412	85.030847	90.927010	90.041063
14.1050	14.1100	94	11	1738.2715	1423.2804	84.689572	91.310820	89.921892
14.1100	14.1150	107	8	1749.3874	1422.5955	84.509701	91.344605	89.799740
14.1150	14.1200	95	10	1760.5075	1421.9104	84.329760	91.378403	89.677540
14.1200	14.1250	114	10	1767.4463	1421.2285	83.874063	91.301884	89.562547
14.1250	14.1300	108	11	1772.7100	1420.5477	83.307410	91.181033	89.450385
14.1300	14.1350	95	17	1777.6560	1419.8551	82.882210	91.061452	89.337635
14.1350	14.1400	104	12	1781.4404	1419.1183	82.977317	90.946331	89.222520
14.1400	14.1450	106	14	1785.2232	1418.3818	83.072387	90.831254	89.107448
14.1450	14.1500	102	12	1788.4459	1417.6610	82.913302	90.718132	88.993236
14.1500	14.1550	133	6	1791.4432	1416.9467	82.652124	90.605803	88.879379
14.1550	14.1600	142	9	1794.1463	1416.2183	82.341107	90.491710	88.764559
14.1600	14.1650	150	16	1795.7668	1415.4373	81.845859	90.370985	88.646062
14.1650	14.1700	192	20	1797.3866	1414.6566	81.350800	90.250305	88.527611
14.1700	14.1750	218	18	1800.4031	1413.8943	81.013731	90.124436	88.409070
14.1750	14.1800	266	30	1803.9790	1413.1397	80.740323	89.996548	88.290556
14.1800	14.1850	338	30	1806.6955	1412.3794	80.344918	89.871003	88.172676
14.1850	14.1900	429	35	1806.2425	1411.5993	79.501019	89.754306	88.057338
14.1900	14.1950	473	37	1805.7894	1410.8191	78.657120	89.637609	87.942001
14.1950	14.2000	542	49	1807.3482	1410.0797	78.755022	89.516124	87.822454
14.2000	14.2050	543	50	1809.7150	1409.3572	79.231490	89.392779	87.701279
14.2050	14.2100	623	47	1811.8295	1408.6475	79.618949	89.270543	87.579582
14.2100	14.2150	513	33	1813.0096	1407.9860	79.677573	89.152612	87.456180
14.2150	14.2200	434	38	1814.1902	1407.3244	79.736220	89.034636	87.332730
14.2200	14.2250	391	36	1815.2252	1406.7072	80.379428	88.914403	87.211006
14.2250	14.2300	291	24	1816.2020	1406.1077	81.257610	88.793221	87.089933
14.2300	14.2350	268	25	1817.2586	1405.5191	82.025258	88.673361	86.968929
14.2350	14.2400	226	23	1818.6090	1404.9707	82.385067	88.558397	86.848207
14.2400	14.2450	247	17	1819.9600	1404.4221	82.745014	88.443388	86.727438
14.2450	14.2500	202	18	1820.1520	1403.8264	83.331488	88.328664	86.612134
14.2500	14.2550	239	20	1819.8780	1403.2115	84.009389	88.213993	86.498967
14.2550	14.2600	193	19	1819.8069	1402.5968	84.671655	88.099667	86.384836
14.2600	14.2650	216	17	1820.4847	1401.9818	85.277375	87.986411	86.266945
14.2650	14.2700	198	10	1821.1622	1401.3672	85.882863	87.873198	86.149099
14.2700	14.2750	177	16	1822.7007	1400.7713	86.076040	87.762129	86.032585
14.2750	14.2800	136	17	1824.5856	1400.1831	86.103312	87.651930	85.916618
14.2800	14.2850	148	18	1825.7221	1399.5780	86.133954	87.538000	85.800093
14.2850	14.2900	105	11	1824.0939	1398.9097	86.177084	87.410150	85.681384
14.2900	14.2950	99	10	1822.4663	1398.2417	86.220198	87.282350	85.562720
14.2950	14.3000	87	9	1823.3085	1397.5383	86.155329	87.159881	85.443174
14.3000	14.3050	74	13	1825.1445	1396.8209	86.047030	87.039622	85.323337
14.3050	14.3100	83	15	1826.4749	1396.1007	85.936875	86.920344	85.204088
14.3100	14.3150	91	7	1825.9371	1395.3710	85.820064	86.804894	85.087228
14.3150	14.3200	98	15	1825.3993	1394.6412	85.703253	86.689445	84.970368
14.3200	14.3250	102	11	1825.0805	1393.8934	85.593464	86.574354	84.853997
14.3250	14.3300	112	19	1824.8501	1393.1386	85.486563	86.459470	84.737885
14.3300	14.3350	121	26	1824.9864	1392.3887	85.376393	86.344475	84.621284
14.3350	14.3400	162	16	1826.4770	1391.6579	85.254350	86.229279	84.503086
14.3400	14.3450	150	20	1827.9682	1390.9268	85.132260	86.114039	84.384842
14.3450	14.3500	169	16	1828.0860	1390.1500	85.009929	85.989298	84.257427
14.3500	14.3550	199	13	1827.6512	1389.3546	84.887459	85.860691	84.126278
14.3550	14.3600	198	18	1827.0814	1388.5595	84.765479	85.732882	83.996805
14.3600	14.3650	225	25	1826.0130	1387.7660	84.645331	85.608046	83.873553
14.3650	14.3700	261	22	1824.9442	1386.9722	84.525137	85.483162	83.750254
14.3700	14.3750	278	23	1825.6143	1386.1311	84.403284	85.363198	83.627307
14.3750	14.3800	274	25	1826.9848	1385.2706	84.280697	85.245150	83.504436
14.3800	14.3850	235	26	1827.8603	1384.4131	84.158359	85.126232	83.381328
14.3850	14.3900	195	21	1826.9073	1383.5654	84.036720	85.003881	83.257123
14.3900	14.3950	201	16	1825.9547	1382.7179	83.915127	84.881577	83.132964
14.3950	14.4000	179	13	1826.8305	1381.9249	83.792918	84.760430	83.013058
14.4000	14.4050	177	16	1828.4428	1381.1538	83.670471	84.639758	82.894873
14.4050	14.4100	158	21	1829.2161	1380.4027	83.551245	84.517633	82.775981
14.4100	14.4150	168	19	1826.8845	1379.7248	83.443809	84.389996	82.654338
14.4150	14.4200	155	15	1824.5537	1379.0473	83.336414	84.262407	82.532742
14.4200	14.4250	162	18	1823.9408	1378.4165	83.225505	84.137393	82.412568
14.4250	14.4300	160	11	1824.0205	1377.8049	83.113239	84.013484	82.293032
14.4300	14.4350	139	17	1824.3735	1377.1916	83.000223	83.889873	82.174010
14.4350	14.4400	126	18	1825.7362	1376.5730	82.884633	83.767587	82.057102
14.4400	14.4450	128	9	1827.0989	1375.9543	82.769042	83.645300	81.940195
14.4450	14.4500	126	11	1826.6063	1375.3090	82.651186	83.531091	81.823215
14.4500	14.4550	130	16	1825.3658	1374.6533	82.532478	83.420201	81.706269
14.4550	14.4600	113	18	1824.1943	1373.9789	82.414030	83.307847	81.589704
14.4600	14.4650	120	13	1823.2811	1373.2365	82.296754	83.190277	81.474762
14.4650	14.4700	115	11	1822.3674	1372.4938	82.179434	83.072662	81.359776
14.4700	14.4750	114	10	1822.9588	1371.7233	82.065748	82.951651	81.232065
14.4750	14.4800	126	14	1824.1571	1370.9412	81.953488	82.829229	81.099181
14.4800	14.4850	96	9	1824.6624	1370.1605	81.840082	82.705973	80.966166
14.4850	14.4900	107	16	1822.6019	1369.3849	81.722453	82.579650	80.832696
14.4900	14.4950	123	12	1820.5405	1368.6091	81.604780	82.453279	80.699174
14.4950	14.5000	107	11	1821.1684	1367.8334	81.494473	82.326754	80.573298
14.5000	14.5050	100	13	1822.8812	1367.0575	81.387077	82.200099	80.450438
14.5050	14.5100	127	4	1824.0199	1366.2997	81.277680	82.076563	80.330269
14.5100	14.5150	159	16	1823.0333	1365.6076	81.160666	81.964362	80.219853
14.5150	14.5200	142	15	1822.0470	1364.9158	81.043698	81.852204	80.109479
14.5200	14.5250	179	22	1821.6904	1364.2683	80.925839	81.744822	80.021736
14.5250	14.5300	222	25	1821.5881	1363.6389	80.807630	81.639376	79.943138
14.5300	14.5350	241	17	1821.6113	1363.0112	80.690585	81.530550	79.864129
14.5350	14.5400	263	20	1822.1001	1362.3899	80.577736	81.409068	79.783511
14.5400	14.5450	221	14	1822.5887	1361.7687	80.464929	81.287632	79.702924
14.5450	14.5500	198	11	1821.4511	1361.0793	80.352992	81.165769	79.612473
14.5500	14.5550	209	13	1819.6576	1360.3628	80.241466	81.043801	79.518089
14.5550	14.5600	174	19	1818.5024	1359.6369	80.128704	80.921123	79.421679
14.5600	14.5650	153	18	1819.7146	1358.8780	80.011559	80.796039	79.317934
14.5650	14.5700	134	14	1820.9268	1358.1191	79.894415	80.670955	79.214190
14.5700	14.5750	123	13	1820.9394	1357.3714	79.782539	80.560953	79.107526
14.5750	14.5800	129	11	1820.4674	1356.6287	79.672851	80.457104	78.999738
14.5800	14.5850	115	7	1819.6688	1355.8978	79.561264	80.352094	78.890675
14.5850	14.5900	103	11	1817.6609	1355.2126	79.442833	80.242972	78.777078
14.5900	14.5950	94	18	1815.6523	1354.5271	79.324357	80.133807	78.663438
14.5950	14.6000	85	11	1815.9936	1353.8498	79.207465	80.036437	78.553819
14.6000	14.6050	96	17	1817.2832	1353.1756	79.091171	79.943793	78.445785
14.6050	14.6100	99	5	1818.0871	1352.5028	78.975461	79.853105	78.336071
14.6100	14.6150	59	10	1817.0879	1351.8354	78.861935	79.769693	78.220144
14.6150	14.6200	68	2	1816.0883	1351.1678	78.748366	79.686248	78.104172
14.6200	14.6250	80	7	1814.3352	1350.5096	78.637380	79.590371	77.991826
14.6250	14.6300	80	6	1812.2768	1349.8548	78.527378	79.489419	77.880885
14.6300	14.6350	57	10	1811.0914	1349.1892	78.417117	79.388285	77.770679
14.6350	14.6400	75	11	1813.1441	1348.4822	78.305696	79.286297	77.663005
14.6400	14.6450	76	14	1815.1960	1347.7754	78.194316	79.184348	77.555372
14.6450	14.6500	108	9	1813.4592	1347.0874	78.064106	79.080098	77.449303
14.6500	14.6550	104	8	1810.1910	1346.4070	77.926293	78.974925	77.343876
14.6550	14.6600	121	12	1807.6580	1345.7235	77.794548	78.869486	77.236998
14.6600	14.6650	114	8	1807.8551	1345.0280	77.685219	78.762939	77.124617
14.6650	14.6700	112	11	1808.0522	1344.3328	77.575932	78.656432	77.012278
14.6700	14.6750	123	11	1808.1451	1343.6700	77.460857	78.547460	76.900161
14.6750	14.6800	119	11	1808.1958	1343.0206	77.343503	78.437550	76.788194
14.6800	14.6850	98	9	1807.9818	1342.3726	77.229076	78.327081	76.675914
14.6850	14.6900	95	10	1806.7854	1341.7310	77.125725	78.214738	76.562671
14.6900	14.6950	94	12	1805.5889	1341.0894	77.022374	78.102395	76.449428
14.6950	14.7000	89	7	1805.8384	1340.4257	76.912830	77.988798	76.334202
14.7000	14.7050	74	11	1806.6728	1339.7533	76.800839	77.874756	76.218235
14.7050	14.7100	87	7	1806.6364	1339.0721	76.687732	77.761122	76.103746
14.7100	14.7150	74	10	1803.3657	1338.3588	76.570687	77.649214	75.994955
14.7150	14.7200	74	13	1800.0936	1337.6453	76.453597	77.537264	75.886123
14.7200	14.7250	68	9	1798.0417	1336.8945	76.340941	77.427593	75.779174
14.7250	14.7300	91	7	1796.4824	1336.1284	76.230038	77.318807	75.672949
14.7300	14.7350	73	11	1795.2130	1335.3622	76.116597	77.209492	75.567200
14.7350	14.7400	76	10	1795.0216	1334.5962	75.993744	77.098235	75.463242
14.7400	14.7450	95	12	1794.8301	1333.8299	75.870843	76.986936	75.359244
14.7450	14.7500	85	13	1793.6619	1332.7305	75.752469	76.854780	75.239762
14.7500	14.7550	81	4	1792.0976	1331.4956	75.635863	76.714113	75.113949
14.7550	14.7600	86	12	1790.6761	1330.3010	75.518322	76.576335	74.988686
14.7600	14.7650	86	7	1789.7826	1329.2542	75.397093	76.449061	74.865241
14.7650	14.7700	64	6	1788.8895	1328.2079	75.275910	76.321836	74.741843
14.7700	14.7750	60	11	1786.6139	1327.3979	75.182499	76.205468	74.630439
14.7750	14.7800	57	9	1783.7787	1326.6836	75.100340	76.093505	74.523900
14.7800	14.7850	53	6	1781.2791	1325.9564	75.015104	75.983305	74.417509
14.7850	14.7900	52	6	1780.0268	1325.1801	74.918316	75.879548	74.311556
14.7900	14.7950	57	4	1778.7750	1324.4040	74.821564	75.775830	74.205643
14.7950	14.8000	51	7	1778.1041	1323.6872	74.722206	75.672485	74.100844
14.8000	14.8050	53	6	1777.6689	1322.9948	74.621846	75.569346	73.996552
14.8050	14.8100	55	9	1776.9953	1322.2207	74.521701	75.467034	73.892909
14.8100	14.8150	76	10	1775.4364	1321.1441	74.422532	75.367978	73.791864
14.8150	14.8200	60	6	1773.8775	1320.0674	74.323363	75.268923	73.690819
14.8200	14.8250	61	8	1772.1924	1318.7937	74.220288	75.167056	73.590360
14.8250	14.8300	68	4	1770.4571	1317.4409	74.115686	75.064104	73.490194
14.8300	14.8350	49	10	1768.7131	1316.1155	74.011095	74.960677	73.389658
14.8350	14.8400	71	8	1766.9402	1314.8948	73.906739	74.855671	73.287932
14.8400	14.8450	59	5	1765.1666	1313.6737	73.802343	74.750624	73.186167
14.8450	14.8500	47	10	1759.9970	1312.7341	73.697279	74.646009	73.083514
14.8500	14.8550	52	7	1753.4505	1311.9082	73.591908	74.541533	72.980464
14.8550	14.8600	40	10	1747.7738	1311.1725	73.485682	74.437098	72.877198
14.8600	14.8650	53	14	1745.3385	1310.7730	73.376294	74.332838	72.773145
14.8650	14.8700	59	8	1742.9024	1310.3734	73.266863	74.228538	72.669051
14.8700	14.8750	62	14	1737.2525	1309.9214	73.161271	74.125262	72.563000
14.8750	14.8800	51	11	1730.2969	1309.4479	73.057177	74.022345	72.456097
14.8800	14.8850	72	6	1723.1760	1308.9551	72.952144	73.919910	72.348594
14.8850	14.8900	76	13	1715.4264	1308.3891	72.843420	73.819084	72.238657
14.8900	14.8950	86	8	1707.6798	1307.8234	72.734738	73.718296	72.128763
14.8950	14.9000	95	5	1699.9405	1307.2456	72.633028	73.617764	72.021351
14.9000	14.9050	89	7	1692.2048	1306.6630	72.534153	73.517345	71.914954
14.9050	14.9100	91	9	1683.4738	1306.0508	72.433684	73.416129	71.809198
14.9100	14.9150	89	13	1671.0188	1305.3277	72.327152	73.311831	71.705722
14.9150	14.9200	128	18	1658.5686	1304.6048	72.220661	73.207572	71.602285
14.9200	14.9250	93	16	1651.2768	1303.8823	72.113679	73.105085	71.503234
14.9250	14.9300	93	12	1646.0813	1303.1604	72.006557	73.003371	71.406016
14.9300	14.9350	93	13	1643.0050	1302.4439	71.900332	72.901578	71.309623
14.9350	14.9400	99	11	1647.8315	1301.7491	71.797644	72.799673	71.216479
14.9400	14.9450	131	9	1652.6580	1301.0544	71.694957	72.697769	71.123336
14.9450	14.9500	137	14	1666.2655	1300.3414	71.590591	72.593241	71.022719
14.9500	14.9550	142	18	1683.4294	1299.6213	71.485600	72.487704	70.919122
14.9550	14.9600	151	21	1701.9755	1298.8862	71.381322	72.380648	70.814506
14.9600	14.9650	213	18	1725.6426	1298.0966	71.279888	72.268119	70.706277
14.9650	14.9700	221	21	1749.3186	1297.3066	71.178416	72.155547	70.598006
14.9700	14.9750	258	22	1769.6852	1296.5056	71.072555	72.042581	70.483086
14.9750	14.9800	314	33	1788.7166	1295.6998	70.964878	71.929415	70.365429
14.9800	14.9850	402	22	1807.3915	1294.9354	70.857758	71.817740	70.248997
14.9850	14.9900	539	36	1824.7322	1294.3255	70.752742	71.711655	70.137155
14.9900	14.9950	670	49	1842.0795	1293.7154	70.647686	71.605530	70.025271
14.9950	15.0000	884	70	1851.1152	1293.0818	70.540542	71.498695	69.914073
15.0000	15.0050	1035	59	1856.7808	1292.4383	70.432494	71.391514	69.803094
15.0050	15.0100	1095	71	1861.4605	1291.7858	70.324202	71.283678	69.692867
15.0100	15.0150	1069	62	1862.4659	1291.0990	70.214807	71.173198	69.585245
15.0150	15.0200	924	71	1863.4710	1290.4125	70.105454	71.062760	69.477664
15.0200	15.0250	887	63	1863.5668	1289.6898	69.997951	70.954890	69.374120
15.0250	15.0300	708	65	1863.2934	1288.9524	69.891208	70.848072	69.272223
15.0300	15.0350	575	50	1863.0202	1288.2072	69.784176	70.739853	69.168853
15.0350	15.0400	474	38	1862.7479	1287.4322	69.675946	70.626279	69.059864
15.0400	15.0450	391	29	1862.4756	1286.6574	69.567758	70.512748	68.950916
15.0450	15.0500	306	23	1862.2026	1285.9576	69.460825	70.400592	68.841259
15.0500	15.0550	273	24	1861.9295	1285.2888	69.354459	70.289055	68.731371
15.0550	15.0600	215	22	1861.6558	1284.6090	69.248480	70.178322	68.621300
15.0600	15.0650	242	22	1861.3804	1283.8892	69.144022	70.070673	68.510619
15.0650	15.0700	223	21	1861.1051	1283.1694	69.039584	69.963045	68.399960
15.0700	15.0750	204	21	1860.8297	1282.4423	68.933592	69.857244	68.292806
15.0750	15.0800	214	19	1860.5544	1281.7127	68.827026	69.752242	68.187136
15.0800	15.0850	198	18	1860.2787	1280.9791	68.720712	69.646149	68.081892
15.0850	15.0900	181	13	1860.0021	1280.2317	68.615535	69.536171	67.978435
15.0900	15.0950	165	14	1859.7253	1279.4840	68.510319	69.426151	67.874938
15.0950	15.1000	129	17	1859.4463	1278.7024	68.405070	69.320625	67.767880
15.1000	15.1050	120	10	1859.1662	1277.9066	68.299772	69.216888	67.659338
15.1050	15.1100	138	10	1858.8865	1277.1373	68.195196	69.113057	67.550485
15.1100	15.1150	110	9	1858.6078	1276.4670	68.093342	69.008895	67.440490
15.1150	15.1200	81	11	1858.3291	1275.7964	67.991449	68.904693	67.330452
15.1200	15.1250	70	9	1858.0473	1275.0620	67.888514	68.800502	67.220795
15.1250	15.1300	68	8	1857.7641	1274.3013	67.785100	68.696260	67.111235
15.1300	15.1350	68	14	1857.4811	1273.5336	67.680758	68.591810	67.001767
15.1350	15.1400	72	11	1857.1983	1272.7382	67.572754	68.486393	66.892449
15.1400	15.1450	80	11	1856.9156	1271.9430	67.464791	68.381017	66.783172
15.1450	15.1500	96	9	1856.6334	1271.1499	67.356710	68.274473	66.679138
15.1500	15.1550	108	17	1856.3515	1270.3576	67.248589	68.167462	66.577246
15.1550	15.1600	116	16	1856.0684	1269.5774	67.142510	68.060736	66.475051
15.1600	15.1650	149	7	1855.7808	1268.8414	67.043968	67.954958	66.371606
15.1650	15.1700	125	13	1855.4933	1268.1057	66.945464	67.849220	66.268200
15.1700	15.1750	152	15	1855.2096	1267.4218	66.845510	67.741615	66.170622
15.1750	15.1800	159	12	1854.9275	1266.7594	66.745020	67.633307	66.075470
15.1800	15.1850	154	15	1854.6450	1266.0854	66.644465	67.524532	65.980425
15.1850	15.1900	184	17	1854.3610	1265.3683	66.543738	67.414079	65.885851
15.1900	15.1950	197	17	1854.0771	1264.6513	66.443030	67.303648	65.791295
15.1950	15.2000	201	15	1853.7704	1263.9209	66.337926	67.194548	65.692845
15.2000	15.2050	172	15	1853.4546	1263.1854	66.231089	67.086050	65.592862
15.2050	15.2100	192	17	1853.1394	1262.4397	66.124429	66.977956	65.492008
15.2100	15.2150	196	13	1852.8271	1261.6566	66.018621	66.871568	65.388076
15.2150	15.2200	180	21	1852.5146	1260.8732	65.912773	66.765139	65.284104
15.2200	15.2250	183	20	1852.2006	1260.0545	65.806635	66.661372	65.176972
15.2250	15.2300	241	16	1851.8859	1259.2210	65.700343	66.558652	65.068518
15.2300	15.2350	205	12	1851.5716	1258.3968	65.595064	66.456621	64.959837
15.2350	15.2400	304	21	1851.2590	1257.6070	65.493598	66.357188	64.850328
15.2400	15.2450	333	34	1850.9462	1256.8170	65.392093	66.257716	64.740777
15.2450	15.2500	452	27	1850.6350	1255.9972	65.290317	66.158268	64.629935
15.2500	15.2550	489	31	1850.3242	1255.1650	65.188378	66.058776	64.518508
15.2550	15.2600	493	22	1850.0125	1254.3499	65.086407	65.959685	64.408167
15.2600	15.2650	460	25	1849.6969	1253.5976	64.984137	65.861920	64.301701
15.2650	15.2700	455	18	1849.3814	1252.8455	64.881905	65.764192	64.195275
15.2700	15.2750	376	21	1849.0775	1252.1032	64.781726	65.666296	64.092731
15.2750	15.2800	298	21	1848.7785	1251.3650	64.682390	65.568339	63.991777
15.2800	15.2850	262	11	1848.4698	1250.6205	64.582382	65.468783	63.888929
15.2850	15.2900	215	16	1848.1247	1249.8514	64.479745	65.363113	63.778856
15.2900	15.2950	168	20	1847.7798	1249.0826	64.377147	65.257483	63.668826
15.2950	15.3000	128	8	1847.4362	1248.3240	64.274374	65.150810	63.555523
15.3000	15.3050	131	11	1847.0933	1247.5699	64.171586	65.043770	63.440947
15.3050	15.3100	117	14	1846.7512	1246.8096	64.068817	64.936660	63.324811
15.3100	15.3150	106	15	1846.4125	1246.0266	63.966199	64.829365	63.202903
15.3150	15.3200	95	11	1846.0738	1245.2438	63.863600	64.722090	63.081018
15.3200	15.3250	77	8	1845.7334	1244.5284	63.762329	64.614193	62.963078
15.3250	15.3300	72	8	1845.3926	1243.8408	63.661654	64.506099	62.846811
15.3300	15.3350	78	9	1845.0521	1243.1299	63.560664	64.398525	62.737220
15.3350	15.3400	85	10	1844.7136	1242.3327	63.458676	64.293097	62.652880
15.3400	15.3450	75	7	1844.3749	1241.5352	63.356649	64.187629	62.568507
15.3450	15.3500	85	5	1844.0329	1240.7172	63.253478	64.077824	62.476106
15.3500	15.3550	109	17	1843.6893	1239.8906	63.149805	63.966213	62.380403
15.3550	15.3600	80	12	1843.3456	1239.0710	63.046401	63.855298	62.286019
15.3600	15.3650	102	5	1843.0013	1238.2780	62.944027	63.747013	62.196603
15.3650	15.3700	88	12	1842.6569	1237.4847	62.841615	63.638687	62.107153
15.3700	15.3750	77	8	1842.3124	1236.6572	62.738350	63.520982	62.015694
15.3750	15.3800	84	8	1841.9677	1235.8154	62.634682	63.399390	61.923368
15.3800	15.3850	88	8	1841.6108	1234.9872	62.532488	63.279584	61.829130
15.3850	15.3900	67	8	1841.2078	1234.2089	62.435643	63.166269	61.727540
15.3900	15.3950	64	6	1840.8049	1233.4309	62.338836	63.052997	61.625990
15.3950	15.4000	53	10	1840.4465	1232.6198	62.242464	62.952524	61.526152
15.4000	15.4050	45	9	1840.1063	1231.7952	62.146278	62.857283	61.427020
15.4050	15.4100	49	7	1839.7663	1230.9737	62.049576	62.761889	61.328562
15.4100	15.4150	65	9	1839.4266	1230.1628	61.950825	62.665812	61.232526
15.4150	15.4200	65	7	1839.0870	1229.3522	61.852112	62.569772	61.136527
15.4200	15.4250	78	8	1838.7234	1228.5730	61.755858	62.480623	61.040743
15.4250	15.4300	87	10	1838.3502	1227.8071	61.660659	62.394333	60.945097
15.4300	15.4350	90	10	1837.9763	1227.0366	61.564615	62.306371	60.850281
15.4350	15.4400	92	17	1837.6006	1226.2495	61.465461	62.212183	60.758656
15.4400	15.4450	120	11	1837.2249	1225.4625	61.366326	62.118012	60.667048
15.4450	15.4500	138	12	1836.8508	1224.7111	61.267938	62.022226	60.574479
15.4500	15.4550	139	10	1836.4776	1223.9748	61.169908	61.925830	60.481567
15.4550	15.4600	92	7	1836.1036	1223.2234	61.071513	61.828410	60.389048
15.4600	15.4650	99	6	1835.7272	1222.4169	60.971925	61.727314	60.298170
15.4650	15.4700	98	10	1835.3506	1221.6101	60.872300	61.626179	60.207257
15.4700	15.4750	99	11	1834.9763	1220.8420	60.771464	61.529345	60.113747
15.4750	15.4800	86	2	1834.6027	1220.0895	60.670100	61.434232	60.019145
15.4800	15.4850	78	10	1834.2290	1219.3356	60.568485	61.340712	59.924975
15.4850	15.4900	90	10	1833.8547	1218.5763	60.465948	61.253199	59.832447
15.4900	15.4950	81	11	1833.4802	1217.8167	60.363372	61.165652	59.739884
15.4950	15.5000	72	8	1833.1004	1217.0000	60.258693	61.071313	59.648566
15.5000	15.5050	81	1	1832.7182	1216.1594	60.153100	60.974147	59.557707
15.5050	15.5100	47	1	1832.3345	1215.3273	60.048209	60.877896	59.466028
15.5100	15.5150	61	1	1831.9449	1214.5257	59.945772	60.784911	59.371095
15.5150	15.5200	60	8	1831.5554	1213.7244	59.843374	60.691962	59.276199
15.5200	15.5250	51	11	1831.1666	1212.9262	59.738907	60.596049	59.179258
15.5250	15.5300	33	11	1830.7780	1212.1294	59.633601	60.498933	59.081489
15.5300	15.5350	29	8	1830.3900	1211.3235	59.529154	60.403284	58.983845
15.5350	15.5400	43	2	1830.0033	1210.4821	59.427825	60.313054	58.886560
15.5400	15.5450	34	12	1829.6168	1209.6409	59.326534	60.222859	58.789312
15.5450	15.5500	29	1	1829.2273	1208.7762	59.219279	60.132622	58.694437
15.5500	15.5550	27	7	1828.8368	1207.9022	59.109644	60.042417	58.600582
15.5550	15.5600	41	6	1828.4472	1207.0450	59.002251	59.950948	58.506958
15.5600	15.5650	28	7	1828.0612	1206.2518	58.903379	59.854786	58.414270
15.5650	15.5700	40	7	1827.6752	1205.4587	58.804527	59.758642	58.321599
15.5700	15.5750	48	7	1827.2898	1204.6854	58.709020	59.664964	58.226032
15.5750	15.5800	37	8	1826.9049	1203.9205	58.614934	59.572346	58.129333
15.5800	15.5850	54	11	1826.5181	1203.1263	58.520948	59.478056	58.033491
15.5850	15.5900	64	13	1826.1251	1202.2235	58.427505	59.377644	57.941054
15.5900	15.5950	78	3	1825.7320	1201.3203	58.334026	59.277193	57.848583
15.5950	15.6000	90	8	1825.3453	1200.4498	58.241086	59.179996	57.755459
15.6000	15.6050	120	6	1824.9611	1199.5923	58.148334	59.084095	57.662035
15.6050	15.6100	137	6	1824.5760	1198.7318	58.057324	58.987999	57.568116
15.6100	15.6150	160	18	1824.1875	1197.8607	57.972894	58.891187	57.472347
15.6150	15.6200	195	15	1823.7988	1196.9891	57.888432	58.794339	57.376541
15.6200	15.6250	215	16	1823.4108	1196.1348	57.793675	58.698582	57.279741
15.6250	15.6300	207	11	1823.0228	1195.2869	57.694654	58.603220	57.182483
15.6300	15.6350	164	14	1822.6340	1194.4311	57.595017	58.506921	57.084393
15.6350	15.6400	153	11	1822.2419	1193.5432	57.492877	58.406913	56.982989
15.6400	15.6450	120	9	1821.8499	1192.6557	57.390776	58.306944	56.881622
15.6450	15.6500	98	7	1821.4578	1191.7576	57.292987	58.204610	56.781595
15.6500	15.6550	69	7	1821.0657	1190.8553	57.196971	58.101317	56.682124
15.6550	15.6600	76	9	1820.6787	1189.9602	57.101307	57.999608	56.582305
15.6600	15.6650	54	7	1820.3106	1189.0915	57.006867	57.903771	56.481064
15.6650	15.6700	32	8	1819.9426	1188.2230	56.912462	57.807971	56.379861
15.6700	15.6750	39	2	1819.5759	1187.2718	56.819498	57.710523	56.280466
15.6750	15.6800	34	4	1819.2099	1186.2871	56.727174	57.612452	56.181865
15.6800	15.6850	29	3	1818.8434	1185.2787	56.634196	57.513925	56.084214
15.6850	15.6900	23	6	1818.4749	1184.1813	56.538822	57.413749	55.990218
15.6900	15.6950	26	1	1818.1064	1183.0841	56.443466	57.313591	55.896240
15.6950	15.7000	15	12	1817.7403	1182.0977	56.344601	57.216379	55.801714
15.7000	15.7050	19	5	1817.3754	1181.1573	56.244352	57.120425	55.707014
15.7050	15.7100	20	5	1817.0103	1180.2227	56.147362	57.023832	55.611999
15.7100	15.7150	18	5	1816.6456	1179.3120	56.062839	56.925009	55.515971
15.7150	15.7200	27	3	1816.2807	1178.4011	55.978285	56.826147	55.419905
15.7200	15.7250	38	6	1815.9165	1177.7415	55.886152	56.727593	55.324548
15.7250	15.7300	32	6	1815.5526	1177.1845	55.790885	56.629129	55.229449
15.7300	15.7350	23	5	1815.1762	1176.6663	55.695452	56.530544	55.134019
15.7350	15.7400	29	4	1814.7527	1176.2945	55.599412	56.431513	55.037361
15.7400	15.7450	26	7	1814.3290	1175.9226	55.503335	56.332444	54.940665
15.7450	15.7500	36	9	1813.8646	1175.5342	55.406142	56.235170	54.842157
15.7500	15.7550	40	6	1813.3833	1175.1390	55.308440	56.138580	54.742853
15.7550	15.7600	50	7	1812.9040	1174.6736	55.210625	56.041928	54.643356
15.7600	15.7650	51	6	1812.4311	1173.9423	55.112210	55.944864	54.542953
15.7650	15.7700	64	2	1811.9584	1173.2112	55.013833	55.847837	54.442588
15.7700	15.7750	46	10	1811.4893	1172.3595	54.916053	55.749086	54.345446
15.7750	15.7800	58	7	1811.0217	1171.4583	54.818525	55.649636	54.249632
15.7800	15.7850	61	9	1810.5546	1170.5389	54.720592	55.550793	54.153581
15.7850	15.7900	46	7	1810.0890	1169.5494	54.621017	55.454133	54.056525
15.7900	15.7950	50	9	1809.6235	1168.5603	54.521480	55.357510	53.959507
15.7950	15.8000	60	7	1809.1700	1167.5747	54.424577	55.257668	53.864819
15.8000	15.8050	66	11	1808.7215	1166.5909	54.328804	55.156561	53.771138
15.8050	15.8100	103	10	1808.2770	1165.6277	54.232141	55.055377	53.675761
15.8100	15.8150	115	10	1807.8477	1164.7430	54.132179	54.953978	53.574041
15.8150	15.8200	141	7	1807.4185	1163.8584	54.032236	54.852598	53.472340
15.8200	15.8250	149	6	1807.0256	1163.0319	53.929873	54.750900	53.372115
15.8250	15.8300	170	13	1806.6478	1162.2297	53.826572	54.649125	53.272549
15.8300	15.8350	152	14	1806.2684	1161.4203	53.723993	54.546446	53.171984
15.8350	15.8400	139	13	1805.8832	1160.5855	53.624333	54.440534	53.067823
15.8400	15.8450	126	9	1805.4979	1159.7503	53.524635	54.334581	52.963622
15.8450	15.8500	141	13	1805.0963	1158.8886	53.423847	54.232487	52.858203
15.8500	15.8550	148	10	1804.6879	1158.0156	53.322577	54.131941	52.752246
15.8550	15.8600	150	7	1804.2756	1157.1426	53.222275	54.032346	52.647113
15.8600	15.8650	178	13	1803.8488	1156.2693	53.125656	53.936371	52.545114
15.8650	15.8700	160	7	1803.4217	1155.3956	53.029001	53.840359	52.443075
15.8700	15.8750	140	10	1802.9898	1154.5437	52.930071	53.740950	52.343713
15.8750	15.8800	136	12	1802.5556	1153.7003	52.830155	53.640094	52.245396
15.8800	15.8850	109	5	1802.1215	1152.8520	52.729243	53.539300	52.147584
15.8850	15.8900	109	15	1801.6867	1151.9835	52.624375	53.438554	52.051510
15.8900	15.8950	72	13	1801.2521	1151.1153	52.519547	53.337847	51.955473
15.8950	15.9000	62	6	1800.7960	1150.2200	52.418404	53.235927	51.858266
15.9000	15.9050	47	8	1800.3311	1149.3135	52.318784	53.133518	51.760585
15.9050	15.9100	42	5	1799.8657	1148.3997	52.218855	53.031080	51.662638
15.9100	15.9150	30	7	1799.3977	1147.4574	52.117648	52.928415	51.563572
15.9150	15.9200	33	4	1798.9300	1146.5155	52.016480	52.825790	51.464545
15.9200	15.9250	29	7	1798.4605	1145.5870	51.920923	52.721835	51.367501
15.9250	15.9300	37	4	1797.9905	1144.6646	51.827721	52.617389	51.271325
15.9300	15.9350	42	9	1797.5208	1143.7481	51.733547	52.513965	51.174685
15.9350	15.9400	28	5	1797.0529	1142.8549	51.635755	52.414490	51.076355
15.9400	15.9450	41	8	1796.5851	1141.9618	51.537982	52.315033	50.978045
15.9450	15.9500	69	7	1796.1187	1141.0691	51.442434	52.216209	50.880488
15.9500	15.9550	69	11	1795.6531	1140.1770	51.347853	52.117698	50.783293
15.9550	15.9600	65	11	1795.1870	1139.2877	51.252768	52.019670	50.686079
15.9600	15.9650	112	9	1794.7202	1138.4108	51.155943	51.923652	50.588968
15.9650	15.9700	113	12	1794.2532	1137.5335	51.059082	51.827598	50.491821
15.9700	15.9750	111	7	1793.7885	1136.6368	50.961132	51.734885	50.394743
15.9750	15.9800	188	16	1793.3246	1135.7317	50.862703	51.643513	50.297661
15.9800	15.9850	176	27	1792.8612	1134.8297	50.765929	51.551640	50.201668
15.9850	15.9900	278	13	1792.4000	1133.9395	50.675449	51.457889	50.109820
15.9900	15.9950	336	33	1791.9386	1133.0490	50.584934	51.364102	50.017937
15.9950	16.0000	378	13	1791.4795	1132.1646	50.487909	51.266248	49.920817
16.0000	16.0050	357	27	1791.0211	1131.2826	50.388194	51.166709	49.821530
16.0050	16.0100	362	24	1790.5630	1130.3982	50.288818	51.066712	49.722413
16.0100	16.0150	300	21	1790.1062	1129.5061	50.190880	50.965122	49.624088
16.0150	16.0200	273	22	1789.6495	1128.6142	50.092979	50.863571	49.525801
16.0200	16.0250	273	11	1789.1875	1127.7520	49.997454	50.766095	49.424813
16.0250	16.0300	210	21	1788.7230	1126.9017	49.902871	50.670259	49.322676
16.0300	16.0350	200	23	1788.2589	1126.0542	49.807680	50.573953	49.222427
16.0350	16.0400	171	16	1787.7966	1125.2178	49.710226	50.475901	49.129375
16.0400	16.0450	194	17	1787.3344	1124.3814	49.612772	50.377848	49.036322
16.0450	16.0500	208	15	1786.8716	1123.5617	49.517514	50.277840	48.944342
16.0500	16.0550	266	15	1786.4089	1122.7494	49.423211	50.177081	48.852851
16.0550	16.0600	302	26	1785.9517	1121.9321	49.327533	50.077559	48.760436
16.0600	16.0650	332	26	1785.5149	1121.0957	49.226592	49.982696	48.664474
16.0650	16.0700	361	30	1785.0781	1120.2592	49.125652	49.887832	48.568513
16.0700	16.0750	405	31	1784.6510	1119.4141	49.028185	49.789048	48.473481
16.0750	16.0800	383	27	1784.2278	1118.5654	48.932131	49.688638	48.378815
16.0800	16.0850	320	23	1783.8042	1117.7166	48.836186	49.588623	48.283860
16.0850	16.0900	260	15	1783.3798	1116.8688	48.740832	49.490293	48.187978
16.0900	16.0950	228	16	1782.9554	1116.0209	48.645479	49.391963	48.092096
16.0950	16.1000	197	14	1782.4737	1115.1219	48.547933	49.297128	47.997695
16.1000	16.1050	192	27	1781.9686	1114.2019	48.449500	49.203748	47.903918
16.1050	16.1100	165	13	1781.4455	1113.2700	48.353001	49.110682	47.811071
16.1100	16.1150	112	18	1780.8531	1112.2919	48.263706	49.018676	47.721621
16.1150	16.1200	100	13	1780.2604	1111.3134	48.174377	48.926635	47.632137
16.1200	16.1250	128	13	1779.6688	1110.3256	48.085477	48.838590	47.540034
16.1250	16.1300	72	14	1779.0775	1109.3340	47.996741	48.752174	47.446840
16.1300	16.1350	76	13	1778.4862	1108.3447	47.907615	48.663731	47.354133
16.1350	16.1400	98	8	1777.8960	1107.3661	47.817135	48.567702	47.263412
16.1400	16.1450	94	9	1777.3061	1106.3879	47.726690	48.471711	47.172726
16.1450	16.1500	98	5	1776.7297	1105.4262	47.639858	48.383703	47.084112
16.1500	16.1550	87	6	1776.1587	1104.4711	47.554482	48.298951	46.996318
16.1550	16.1600	111	7	1775.5884	1103.5147	47.468507	48.213078	46.907907
16.1600	16.1650	87	9	1775.0208	1102.5542	47.380298	48.122979	46.817186
16.1650	16.1700	95	8	1774.4532	1101.5938	47.292088	48.032880	46.726464
16.1700	16.1750	86	9	1773.8844	1100.6452	47.202532	47.943554	46.638049
16.1750	16.1800	76	13	1773.3154	1099.7020	47.112469	47.854596	46.550632
16.1800	16.1850	50	2	1772.7442	1098.7587	47.021969	47.765103	46.461083
16.1850	16.1900	40	6	1772.1643	1097.8145	46.929767	47.673540	46.363379
16.1900	16.1950	56	6	1771.5844	1096.8704	46.837565	47.581976	46.265674
16.1950	16.2000	32	5	1771.0574	1095.9812	46.751826	47.489256	46.169514
16.2000	16.2050	42	8	1770.5519	1095.1146	46.668734	47.396046	46.073974
16.2050	16.2100	25	4	1770.0625	1094.2575	46.584387	47.303782	45.980234
16.2100	16.2150	37	7	1769.6346	1093.4383	46.495418	47.215285	45.893509
16.2150	16.2200	40	6	1769.2067	1092.6191	46.406449	47.126789	45.806784
16.2200	16.2250	30	3	1768.7640	1091.7734	46.315036	47.031423	45.727759
16.2250	16.2300	43	4	1768.3152	1090.9169	46.222628	46.933235	45.651927
16.2300	16.2350	51	3	1767.8587	1090.0562	46.131684	46.837457	45.580172
16.2350	16.2400	56	8	1767.3720	1089.1784	46.046181	46.750702	45.523826
16.2400	16.2450	64	10	1766.8850	1088.3003	45.960645	46.663913	45.467458
16.2450	16.2500	59	10	1766.3987	1087.4041	45.871511	46.578759	45.399517
16.2500	16.2550	49	7	1765.9125	1086.5004	45.780881	46.494265	45.326795
16.2550	16.2600	58	8	1765.3744	1085.5995	45.691416	46.406881	45.251332
16.2600	16.2650	65	5	1764.6392	1084.7107	45.606517	46.308619	45.165536
16.2650	16.2700	57	6	1763.9044	1083.8222	45.521650	46.210393	45.079774
16.2700	16.2750	67	5	1763.3784	1082.9824	45.433559	46.121602	44.990647
16.2750	16.2800	64	10	1762.9383	1082.1624	45.344104	46.036667	44.900099
16.2800	16.2850	60	2	1762.5003	1081.3468	45.256195	45.953244	44.810759
16.2850	16.2900	61	4	1762.0705	1080.5481	45.174197	45.875595	44.726043
16.2900	16.2950	64	9	1761.6408	1079.7494	45.092198	45.797945	44.641327
16.2950	16.3000	62	10	1761.1922	1078.9548	45.010101	45.723757	44.557870
16.3000	16.3050	69	4	1760.7361	1078.1624	44.928008	45.651036	44.474976
16.3050	16.3100	66	8	1760.2697	1077.3554	44.844358	45.577845	44.393054
16.3100	16.3150	67	5	1759.7637	1076.4921	44.754736	45.502831	44.314805
16.3150	16.3200	76	5	1759.2577	1075.6288	44.665115	45.427816	44.236557
16.3200	16.3250	65	7	1758.7462	1074.7516	44.577379	45.352116	44.157015
16.3250	16.3300	78	6	1758.2323	1073.8685	44.490407	45.276120	44.076927
16.3300	16.3350	63	5	1757.7186	1072.9798	44.402693	45.198652	43.996247
16.3350	16.3400	57	1	1757.2068	1072.0717	44.312316	45.115713	43.913461
16.3400	16.3450	50	4	1756.6950	1071.1636	44.221939	45.032775	43.830674
16.3450	16.3500	56	6	1756.1828	1070.2561	44.135986	44.946630	43.745581
16.3500	16.3550	58	5	1755.6704	1069.3489	44.051876	44.859174	43.659548
16.3550	16.3600	31	3	1755.1713	1068.4446	43.967933	44.773151	43.574339
16.3600	16.3650	44	2	1754.7224	1067.5501	43.884509	44.692466	43.492146
16.3650	16.3700	23	7	1754.2733	1066.6551	43.801053	44.611751	43.409923
16.3700	16.3750	22	3	1753.8269	1065.7758	43.717837	44.530514	43.327085
16.3750	16.3800	18	4	1753.3816	1064.9028	43.634707	44.449049	43.243980
16.3800	16.3850	21	5	1752.9361	1064.0433	43.551619	44.367604	43.161557
16.3850	16.3900	18	5	1752.4908	1063.2363	43.468811	44.286356	43.081855
16.3900	16.3950	14	3	1752.0457	1062.4296	43.386036	44.205140	43.002183
16.3950	16.4000	16	3	1751.5674	1061.6063	43.294455	44.125587	42.920267
16.4000	16.4050	28	7	1751.0753	1060.7757	43.199198	44.046691	42.837392
16.4050	16.4100	19	6	1750.5729	1059.9306	43.107050	43.966198	42.753863
16.4100	16.4150	14	3	1750.0315	1059.0302	43.026788	43.879649	42.667873
16.4150	16.4200	16	3	1749.4902	1058.1298	42.946526	43.793101	42.581883
16.4200	16.4250	16	5	1748.9504	1057.1886	42.862423	43.706138	42.496151
16.4250	16.4300	30	3	1748.4114	1056.2309	42.776778	43.619052	42.410573
16.4300	16.4350	17	4	1747.8723	1055.2726	42.691438	43.531867	42.324886
16.4350	16.4400	21	2	1747.3324	1054.3115	42.607232	43.444267	42.238753
16.4400	16.4450	25	3	1746.7925	1053.3504	42.523027	43.356668	42.152620
16.4450	16.4500	28	4	1746.2466	1052.4401	42.442422	43.271175	42.067706
16.4500	16.4550	22	4	1745.6981	1051.5507	42.363292	43.186539	41.983283
16.4550	16.4600	22	5	1745.1496	1050.6646	42.283643	43.101818	41.898869
16.4600	16.4650	25	2	1744.6023	1049.7930	42.202162	43.016931	41.814647
16.4650	16.4700	20	6	1744.0550	1048.9214	42.120681	42.932045	41.730425
16.4700	16.4750	23	3	1743.5078	1048.0437	42.045746	42.847320	41.645625
16.4750	16.4800	12	2	1742.9608	1047.1636	41.973533	42.762676	41.560599
16.4800	16.4850	16	2	1742.4242	1046.2926	41.900343	42.678526	41.475841
16.4850	16.4900	16	3	1741.9271	1045.4554	41.823314	42.596138	41.391983
16.4900	16.4950	15	2	1741.4298	1044.6178	41.746255	42.513719	41.308093
16.4950	16.5000	16	2	1740.9646	1043.7909	41.670352	42.431033	41.225109
16.5000	16.5050	14	5	1740.5126	1042.9683	41.594914	42.348223	41.142487
16.5050	16.5100	15	5	1740.0612	1042.1490	41.519408	42.265386	41.060058
16.5100	16.5150	14	2	1739.6127	1041.3439	41.443756	42.182566	40.978486
16.5150	16.5200	10	2	1739.1643	1040.5390	41.368133	42.099777	40.896945
16.5200	16.5250	15	3	1738.7159	1039.7249	41.289781	42.018241	40.816851
16.5250	16.5300	10	5	1738.2673	1038.9066	41.210271	41.937193	40.737326
16.5300	16.5350	13	5	1737.8117	1038.0851	41.131046	41.855984	40.657990
16.5350	16.5400	12	1	1737.3293	1037.2519	41.052941	41.774193	40.579405
16.5400	16.5450	16	4	1736.8469	1036.4187	40.974836	41.692402	40.500821
16.5450	16.5500	16	4	1736.3653	1035.5792	40.894897	41.610832	40.423120
16.5500	16.5550	17	2	1735.8844	1034.7375	40.814242	41.529397	40.345828
16.5550	16.5600	16	5	1735.4035	1033.7785	40.734458	41.447780	40.268364
16.5600	16.5650	12	3	1734.9229	1032.3692	40.657982	41.365432	40.190212
16.5650	16.5700	4	3	1734.4422	1030.9598	40.581507	41.283084	40.112061
16.5700	16.5750	13	2	1733.9633	1029.9707	40.504771	41.200468	40.031638
16.5750	16.5800	11	2	1733.4849	1029.1554	40.427916	41.117728	39.950265
16.5800	16.5850	18	6	1733.0075	1028.3343	40.350254	41.035220	39.869220
16.5850	16.5900	13	3	1732.5346	1027.4930	40.269654	40.953753	39.789586
16.5900	16.5950	19	1	1732.0618	1026.6518	40.189053	40.872287	39.709951
16.5950	16.6000	16	4	1731.5899	1025.8103	40.109659	40.792122	39.630128
16.6000	16.6050	33	6	1731.1185	1024.9689	40.030778	40.712510	39.550239
16.6050	16.6100	34	8	1730.6477	1024.1245	39.951702	40.633036	39.470762
16.6100	16.6150	33	6	1730.1787	1023.2670	39.871762	40.553972	39.392745
16.6150	16.6200	27	4	1729.7096	1022.4092	39.791791	40.474878	39.314699
16.6200	16.6250	21	6	1729.2592	1021.5640	39.713673	40.395963	39.237550
16.6250	16.6300	25	2	1728.8164	1020.7239	39.636310	40.317109	39.160761
16.6300	16.6350	20	3	1728.3738	1019.8799	39.558878	40.238403	39.083854
16.6350	16.6400	26	2	1727.9323	1019.0221	39.481292	40.160377	39.006612
16.6400	16.6450	22	4	1727.4910	1018.1647	39.403737	40.082381	38.929400
16.6450	16.6500	22	6	1727.0520	1017.2971	39.327212	40.003913	38.852023
16.6500	16.6550	16	4	1726.6138	1016.4251	39.251086	39.925219	38.774547
16.6550	16.6600	18	3	1726.1742	1015.5544	39.175015	39.846643	38.697241
16.6600	16.6650	23	8	1725.7296	1014.6889	39.099184	39.768549	38.620609
16.6650	16.6700	26	4	1725.2849	1013.8235	39.023354	39.690456	38.543978
16.6700	16.6750	26	4	1724.8551	1012.9424	38.945249	39.612354	38.467600
16.6750	16.6800	37	6	1724.4317	1012.0553	38.866243	39.534291	38.391368
16.6800	16.6850	25	4	1724.0141	1011.1780	38.787639	39.456306	38.315466
16.6850	16.6900	28	5	1723.6185	1010.3381	38.710548	39.378586	38.240802
16.6900	16.6950	38	8	1723.2229	1009.4982	38.633457	39.300865	38.166137
16.6950	16.7000	36	4	1722.8076	1008.6846	38.554153	39.221833	38.089596
16.7000	16.7050	41	8	1722.3840	1007.8818	38.473920	39.142245	38.012266
16.7050	16.7100	51	3	1721.9671	1007.0834	38.393660	39.062250	37.934667
16.7100	16.7150	56	7	1721.5765	1006.3036	38.313446	38.980843	37.856183
16.7150	16.7200	64	11	1721.1859	1005.5238	38.233232	38.899436	37.777699
16.7200	16.7250	108	8	1720.7716	1004.7229	38.153114	38.819173	37.698443
16.7250	16.7300	101	14	1720.3476	1003.9135	38.073049	38.739397	37.618878
16.7300	16.7350	118	5	1719.9131	1003.0969	37.993066	38.659548	37.539301
16.7350	16.7400	142	12	1719.4381	1002.2520	37.913278	38.579299	37.459561
16.7400	16.7450	213	12	1718.9629	1001.4069	37.833460	38.499019	37.379790
16.7450	16.7500	239	22	1718.4638	1000.5630	37.753961	38.419956	37.300204
16.7500	16.7550	349	35	1717.9547	999.71966	37.674582	38.341385	37.220682
16.7550	16.7600	433	30	1717.4248	998.86983	37.595171	38.262825	37.141271
16.7600	16.7650	592	25	1716.8156	997.99645	37.515755	38.184425	37.062404
16.7650	16.7700	610	51	1716.2067	997.12341	37.436369	38.106054	36.983567
16.7700	16.7750	676	40	1715.6107	996.27177	37.357092	38.026908	36.906682
16.7750	16.7800	640	42	1715.0199	995.42870	37.277830	37.947409	36.830578
16.7800	16.7850	569	52	1714.4243	994.58895	37.198828	37.868084	36.754952
16.7850	16.7900	499	42	1713.8107	993.76220	37.120858	37.789454	36.681190
16.7900	16.7950	386	33	1713.1971	992.93545	37.042888	37.710825	36.607427
16.7950	16.8000	317	15	1712.6625	992.12061	36.966529	37.632738	36.534176
16.8000	16.8050	203	16	1712.1611	991.31116	36.890881	37.554918	36.461176
16.8050	16.8100	144	18	1711.6832	990.49986	36.815608	37.477638	36.388642
16.8100	16.8150	114	8	1711.2959	989.68114	36.741746	37.402402	36.317871
16.8150	16.8200	92	12	1710.9086	988.86241	36.667884	37.327166	36.247101
16.8200	16.8250	86	9	1710.5172	988.03075	36.595170	37.254042	36.174727
16.8250	16.8300	49	4	1710.1239	987.19359	36.522922	37.181781	36.101677
16.8300	16.8350	60	12	1709.7292	986.35290	36.450555	37.109420	36.028494
16.8350	16.8400	43	9	1709.3294	985.50022	36.377869	37.036801	35.954941
16.8400	16.8450	48	7	1708.9297	984.64755	36.305183	36.964183	35.881388
16.8450	16.8500	46	6	1708.5423	983.80878	36.232509	36.891875	35.809757
16.8500	16.8550	24	10	1708.1601	982.97592	36.159850	36.819707	35.738937
16.8550	16.8600	26	6	1707.7758	982.14505	36.087633	36.747910	35.668015
16.8600	16.8650	31	6	1707.3827	981.32064	36.017007	36.677427	35.596594
16.8650	16.8700	38	12	1706.9894	980.49591	35.946355	36.606918	35.525146
16.8700	16.8750	20	5	1706.6073	979.69056	35.875775	36.537251	35.455644
16.8750	16.8800	30	8	1706.2297	978.89313	35.805214	36.467923	35.386940
16.8800	16.8850	29	10	1705.8509	978.09458	35.734605	36.398237	35.318406
16.8850	16.8900	20	12	1705.4678	977.29287	35.663917	36.327278	35.250630
16.8900	16.8950	32	11	1705.0850	976.49147	35.593257	36.256346	35.182880
16.8950	16.9000	25	9	1704.6943	975.67277	35.522818	36.185885	35.116311
16.9000	16.9050	24	10	1704.3003	974.84655	35.452443	36.115591	35.050208
16.9050	16.9100	40	7	1703.9069	974.01689	35.382291	36.045255	34.983355
16.9100	16.9150	21	5	1703.5156	973.17429	35.313019	35.974782	34.913649
16.9150	16.9200	24	3	1703.1243	972.33170	35.243746	35.904309	34.843943
16.9200	16.9250	32	3	1702.7254	971.47666	35.175149	35.833066	34.772351
16.9250	16.9300	22	23	1702.3236	970.61691	35.106870	35.761542	34.700014
16.9300	16.9350	31	10	1701.9283	969.75602	35.038660	35.690846	34.628234
16.9350	16.9400	22	5	1701.5582	968.89038	34.970687	35.623314	34.558576
16.9400	16.9450	38	9	1701.1880	968.02474	34.902715	35.555782	34.488918
16.9450	16.9500	35	7	1700.8274	967.15926	34.834817	35.489384	34.421876
16.9500	16.9550	33	14	1700.4706	966.29372	34.766939	35.423447	34.355909
16.9550	16.9600	38	7	1700.1129	965.42932	34.699445	35.357255	34.290420
16.9600	16.9650	40	9	1699.7525	964.57093	34.633553	35.290200	34.226888
16.9650	16.9700	46	5	1699.3922	963.71254	34.567660	35.223145	34.163356
16.9700	16.9750	53	9	1699.0334	962.86334	34.500411	35.155487	34.099437
16.9750	16.9800	71	12	1698.6753	962.01810	34.432608	35.087589	34.035368
16.9800	16.9850	74	7	1698.3134	961.17211	34.365029	35.019815	33.971411
16.9850	16.9900	86	8	1697.9367	960.32199	34.298211	34.952416	33.907794
16.9900	16.9950	91	10	1697.5599	959.47155	34.231367	34.884992	33.844153
16.9950	17.0000	115	18	1697.1231	958.30946	34.144074	34.795082	33.759229
17.0000	17.0050	133	12	1696.6613	957.01757	34.048261	34.695806	33.665438
17.0050	17.0100	167	14	1696.1940	955.70317	33.950186	34.594622	33.569652
17.0100	17.0150	194	20	1695.7063	954.30389	33.843534	34.486238	33.466311
17.0150	17.0200	221	21	1695.2188	952.90515	33.736922	34.377896	33.363010
17.0200	17.0250	281	30	1694.7832	951.83615	33.653488	34.293264	33.280383
17.0250	17.0300	385	36	1694.3691	950.90411	33.579680	34.218478	33.206338
17.0300	17.0350	578	47	1693.9611	949.96980	33.505408	34.143422	33.131839
17.0350	17.0400	736	44	1693.5769	949.02707	33.429379	34.067357	33.055617
17.0400	17.0450	837	63	1693.1927	948.08434	33.353350	33.991291	32.979394
17.0450	17.0500	789	50	1692.8621	947.45797	33.296820	33.935274	32.920197
17.0500	17.0550	796	60	1692.5540	946.96369	33.248443	33.887637	32.868122
17.0550	17.0600	762	71	1692.2358	946.43514	33.197191	33.837337	32.811095
17.0600	17.0650	676	59	1691.8781	945.77412	33.134829	33.776738	32.734933
17.0650	17.0700	597	55	1691.5204	945.11310	33.072467	33.716140	32.658772
17.0700	17.0750	594	39	1691.2496	944.89867	33.040044	33.684589	32.621106
17.0750	17.0800	651	43	1691.0149	944.87002	33.020073	33.665120	32.599450
17.0800	17.0850	753	64	1690.7624	944.79533	32.997409	33.642939	32.575785
17.0850	17.0900	772	54	1690.4413	944.54317	32.964399	33.610341	32.544414
17.0900	17.0950	781	58	1690.1201	944.29101	32.931389	33.577743	32.513042
17.0950	17.1000	787	48	1689.7965	943.98253	32.894478	33.540756	32.479144
17.1000	17.1050	686	52	1689.4719	943.65061	32.855946	33.501943	32.444197
17.1050	17.1100	578	53	1689.1272	943.20888	32.810454	33.455870	32.402444
17.1100	17.1150	427	29	1688.7043	942.34302	32.738057	33.381728	32.334385
17.1150	17.1200	351	22	1688.2812	941.47683	32.665632	33.307558	32.266300
17.1200	17.1250	239	16	1687.8751	940.68797	32.597005	33.234207	32.202950
17.1250	17.1300	212	14	1687.4760	939.93121	32.529949	33.161185	32.141562
17.1300	17.1350	147	13	1686.9963	939.26328	32.468699	33.095348	32.085119
17.1350	17.1400	118	20	1686.2063	938.93950	32.429964	33.057363	32.047858
17.1400	17.1450	85	13	1685.4167	938.61584	32.391244	33.019392	32.010612
17.1450	17.1500	87	10	1685.0321	938.62304	32.372638	33.001522	31.992321
17.1500	17.1550	62	12	1684.8164	938.76833	32.362418	32.992033	31.981934
17.1550	17.1600	43	4	1684.6111	938.96299	32.354789	32.986134	31.974554
17.1600	17.1650	54	12	1684.4459	939.34804	32.357158	32.994078	31.978779
17.1650	17.1700	40	8	1684.2806	939.73310	32.359526	33.002023	31.983004
17.1700	17.1750	38	7	1683.9459	939.28651	32.310868	32.957820	31.936688
17.1750	17.1800	44	4	1683.5406	938.49309	32.240940	32.891878	31.869304
17.1800	17.1850	41	14	1683.1077	937.69706	32.171358	32.826383	31.802751
17.1850	17.1900	36	9	1682.5678	936.89064	32.103086	32.762597	31.739389
17.1900	17.1950	48	5	1682.0280	936.08422	32.034814	32.698810	31.676026
17.1950	17.2000	34	8	1681.4400	934.97110	31.951485	32.616930	31.595957
17.2000	17.2050	39	11	1680.8318	933.73002	31.861867	32.527496	31.508913
17.2050	17.2100	40	7	1680.2676	932.71073	31.786499	32.451836	31.434901
17.2100	17.2150	23	5	1679.8743	932.55009	31.766314	32.429515	31.411359
17.2150	17.2200	34	6	1679.4810	932.38946	31.746128	32.407194	31.387818
17.2200	17.2250	27	4	1679.0602	932.02524	31.713520	32.370389	31.352151
17.2250	17.2300	31	10	1678.6280	931.57600	31.675726	32.327536	31.311421
17.2300	17.2350	18	9	1678.2038	931.16894	31.640158	32.287192	31.273069
17.2350	17.2400	23	7	1677.8105	930.92430	31.613138	32.256486	31.243852
17.2400	17.2450	24	5	1677.4170	930.67958	31.586108	32.225769	31.214624
17.2450	17.2500	16	4	1676.9972	930.32458	31.550643	32.188632	31.178916
17.2500	17.2550	15	3	1676.5663	929.92353	31.511652	32.148810	31.140499
17.2550	17.2600	18	4	1676.1092	929.37953	31.464056	32.100223	31.093860
17.2600	17.2650	16	4	1675.5513	928.28315	31.383235	32.017787	31.015472
17.2650	17.2700	13	2	1674.9936	927.18718	31.302445	31.935383	30.937114
17.2700	17.2750	18	4	1674.4251	926.35670	31.239610	31.871022	30.876078
17.2750	17.2800	21	6	1673.8519	925.63682	31.184253	31.814173	30.822255
17.2800	17.2850	18	2	1673.2703	924.88367	31.129778	31.755504	30.766718
17.2850	17.2900	16	7	1672.6565	924.00231	31.078733	31.689822	30.704586
17.2900	17.2950	20	4	1672.0427	923.12094	31.027689	31.624140	30.642454
17.2950	17.3000	18	4	1671.4325	922.53576	30.985270	31.576473	30.597026
17.3000	17.3050	16	3	1670.8242	922.07468	30.946480	31.536361	30.558602
17.3050	17.3100	19	9	1670.1927	921.61008	30.906837	31.495851	30.519489
17.3100	17.3150	26	6	1669.4713	921.13172	30.863872	31.453783	30.477689
17.3150	17.3200	23	3	1668.7499	920.65335	30.820907	31.411715	30.435889
17.3200	17.3250	17	4	1668.0873	920.32547	30.787207	31.378655	30.401329
17.3250	17.3300	21	4	1667.4493	920.06032	30.757367	31.349349	30.369784
17.3300	17.3350	21	4	1666.8158	919.82865	30.729296	31.321685	30.339783
17.3350	17.3400	19	3	1666.2009	919.72700	30.708130	31.300429	30.315818
17.3400	17.3450	15	5	1665.5861	919.62535	30.686963	31.279172	30.291852
17.3450	17.3500	19	9	1664.9588	919.52071	30.664722	31.257459	30.267311
17.3500	17.3550	31	1	1664.3265	919.41485	30.642035	31.235559	30.242532
17.3550	17.3600	26	4	1663.6771	919.19105	30.612903	31.207186	30.211498
17.3600	17.3650	28	4	1662.9608	918.51049	30.558782	31.153724	30.156204
17.3650	17.3700	33	6	1662.2443	917.82968	30.504641	31.100243	30.100890
17.3700	17.3750	33	3	1661.4440	916.74454	30.426585	31.022937	30.023692
17.3750	17.3800	29	5	1660.6085	915.49021	30.338520	30.935661	29.937334
17.3800	17.3850	29	3	1659.7817	914.28460	30.253595	30.851047	29.853809
17.3850	17.3900	40	3	1658.9900	913.26985	30.180977	30.776891	29.781406
17.3900	17.3950	25	1	1658.1985	912.25548	30.108386	30.702764	29.709030
17.3950	17.4000	37	4	1657.5264	911.42891	30.047472	30.640863	29.649303
17.4000	17.4050	36	2	1656.9040	910.68066	29.991422	30.584058	29.594850
17.4050	17.4100	31	3	1656.3073	909.96706	29.937907	30.529681	29.542853
17.4100	17.4150	22	3	1655.8104	909.38792	29.894223	30.484727	29.500388
17.4150	17.4200	35	6	1655.3135	908.80877	29.850539	30.439773	29.457924
17.4200	17.4250	24	4	1654.8126	908.24471	29.808014	30.395548	29.417173
17.4250	17.4300	21	4	1654.3104	907.68727	29.765995	30.351652	29.377161
17.4300	17.4350	38	3	1653.7939	907.04589	29.719259	30.303046	29.332464
17.4350	17.4400	22	7	1653.2217	906.07833	29.654180	30.236127	29.269560
17.4400	17.4450	28	4	1652.6494	905.11076	29.589101	30.169208	29.206655
17.4450	17.4500	32	5	1651.9930	904.04199	29.531056	30.109675	29.149800
17.4500	17.4550	21	2	1651.3013	902.93074	29.475944	30.053222	29.095467
17.4550	17.4600	17	4	1650.5093	901.81501	29.418649	29.994810	29.038943
17.4600	17.4650	29	3	1649.3295	900.68402	29.352996	29.928910	28.974028
17.4650	17.4700	27	5	1648.1497	899.55303	29.287342	29.863009	28.909113
17.4700	17.4750	29	5	1646.9013	898.12484	29.204611	29.778768	28.826247
17.4750	17.4800	33	1	1645.6245	896.57229	29.114736	29.686853	28.735869
17.4800	17.4850	39	6	1644.3455	895.00434	29.023988	29.594237	28.644919
17.4850	17.4900	31	4	1643.0563	893.37437	28.929727	29.498769	28.551614
17.4900	17.4950	38	7	1641.7667	891.74377	28.835430	29.403264	28.458273
17.4950	17.5000	41	5	1640.5114	890.24766	28.749429	29.316068	28.373206
17.5000	17.5050	34	3	1639.2703	888.80761	28.666888	29.232336	28.291588
17.5050	17.5100	25	3	1638.2619	887.52766	28.589532	29.154116	28.215311
17.5100	17.5150	36	5	1638.1593	886.87159	28.532438	29.097429	28.159901
17.5150	17.5200	23	9	1638.0567	886.21578	28.475365	29.040765	28.104512
17.5200	17.5250	28	5	1638.5913	885.74683	28.420601	28.985806	28.050721
17.5250	17.5300	25	2	1639.3931	885.35598	28.366784	28.931542	27.997578
17.5300	17.5350	17	10	1640.2077	885.03316	28.316972	28.881199	27.948372
17.5350	17.5400	20	2	1641.0718	884.97406	28.282694	28.846073	27.914438
17.5400	17.5450	31	2	1641.9359	884.91495	28.248417	28.810947	27.880504
17.5450	17.5500	22	4	1642.6957	884.28640	28.182982	28.744413	27.815347
17.5500	17.5550	22	7	1643.4114	883.41965	28.104531	28.664758	27.737147
17.5550	17.5600	17	2	1643.8806	882.43424	28.022458	28.581730	27.655813
17.5600	17.5650	24	4	1643.3913	880.98688	27.926267	28.485549	27.562263
17.5650	17.5700	26	4	1642.9020	879.53952	27.830077	28.389369	27.468712
17.5700	17.5750	31	3	1642.3944	878.36194	27.748828	28.308723	27.389348
17.5750	17.5800	37	3	1641.8790	877.29709	27.673821	28.234567	27.315909
17.5800	17.5850	28	2	1641.3629	876.22719	27.598349	28.159972	27.242226
17.5850	17.5900	52	1	1640.8448	875.13966	27.521218	28.083809	27.167734
17.5900	17.5950	52	5	1640.3267	874.05214	27.444087	28.007646	27.093243
17.5950	17.6000	78	2	1639.8041	873.05368	27.373458	27.937440	27.024977
17.6000	17.6050	83	6	1639.2798	872.09276	27.305569	27.869746	26.959336
17.6050	17.6100	126	9	1638.7445	871.18210	27.240732	27.805162	26.896643
17.6100	17.6150	128	11	1638.1662	870.46536	27.187655	27.752564	26.845309
17.6150	17.6200	135	7	1637.5877	869.74834	27.134558	27.699946	26.793955
17.6200	17.6250	124	10	1637.0619	868.92311	27.074895	27.640437	26.736174
17.6250	17.6300	135	6	1636.5581	868.05239	27.012470	27.578032	26.675689
17.6300	17.6350	110	2	1636.0651	867.20471	26.951504	27.516719	26.616261
17.6350	17.6400	94	5	1635.6151	866.44797	26.896309	27.459754	26.561036
17.6400	17.6450	75	3	1635.1653	865.69152	26.841135	27.402811	26.505832
17.6450	17.6500	48	2	1634.7034	864.88204	26.782127	27.342717	26.447461
17.6500	17.6550	35	2	1634.2363	864.04998	26.721486	27.281277	26.387739
17.6550	17.6600	46	1	1633.7693	863.16814	26.658025	27.216986	26.325392
17.6600	17.6650	31	2	1633.3028	862.09321	26.583630	27.141639	26.252873
17.6650	17.6700	34	4	1632.8362	861.01828	26.509236	27.066293	26.180355
17.6700	17.6750	17	5	1632.2868	859.62371	26.417349	26.973969	26.090798
17.6750	17.6800	20	3	1631.7029	858.09569	26.318167	26.874566	25.994135
17.6800	17.6850	17	1	1631.1037	856.48346	26.214944	26.771040	25.893306
17.6850	17.6900	11	3	1630.4448	854.54209	26.095912	26.651385	25.776185
17.6900	17.6950	20	3	1629.7860	852.60072	25.976881	26.531730	25.659064
17.6950	17.7000	17	0	1628.8544	850.07642	25.829086	26.382434	25.513163
17.7000	17.7050	22	3	1627.8083	847.30725	25.669204	26.220684	25.355169
17.7050	17.7100	26	6	1626.6976	844.39620	25.520895	26.071003	25.209474
17.7100	17.7150	23	3	1625.3374	840.93800	25.417937	25.968607	25.111959
17.7150	17.7200	20	0	1623.9773	837.47980	25.314979	25.866210	25.014444
17.7200	17.7250	23	0	1622.6737	834.39040	25.280734	25.833625	24.985255
17.7250	17.7300	20	3	1621.3940	831.45666	25.275403	25.830415	24.984818
17.7300	17.7350	22	1	1620.1342	828.61981	25.272564	25.829768	24.986928
17.7350	17.7400	24	5	1618.9499	826.15631	25.279434	25.839108	24.998971
17.7400	17.7450	22	3	1617.7650	823.69187	25.286307	25.848452	25.011018
17.7450	17.7500	27	5	1616.6403	821.51013	25.302157	25.865984	25.031582
17.7500	17.7550	20	5	1615.5405	819.44674	25.321778	25.886957	25.055725
17.7550	17.7600	18	3	1614.4577	817.45944	25.343525	25.910032	25.081955
17.7600	17.7650	24	2	1613.4426	815.77182	25.373532	25.941270	25.116285
17.7650	17.7700	29	3	1612.4279	814.08484	25.403528	25.972497	25.150602
17.7700	17.7750	37	5	1611.3441	811.68425	25.386246	25.956022	25.138326
17.7750	17.7800	26	3	1610.2309	808.98269	25.349078	25.919483	25.106454
17.7800	17.7850	32	4	1609.0636	806.02419	25.296096	25.866850	25.058974
17.7850	17.7900	29	6	1607.6862	802.06569	25.181512	25.751522	24.950691
17.7900	17.7950	18	2	1606.3087	798.10718	25.066928	25.636195	24.842408
17.7950	17.8000	18	2	1605.0212	794.24864	24.952125	25.520884	24.732914
17.8000	17.8050	18	2	1603.7722	790.43423	24.837292	25.405642	24.622971
17.8050	17.8100	14	3	1602.5364	786.57638	24.718517	25.286432	24.509023
17.8100	17.8150	17	1	1601.3517	782.54735	24.584298	25.151675	24.379382
17.8150	17.8200	9	1	1600.1669	778.51833	24.450079	25.016918	24.249742
17.8200	17.8250	16	3	1599.1515	775.24050	24.352655	24.920241	24.157300
17.8250	17.8300	12	4	1598.2070	772.27761	24.270668	24.839540	24.080465
17.8300	17.8350	13	2	1597.3140	769.55468	24.201313	24.771469	24.015893
17.8350	17.8400	15	3	1596.6240	767.77306	24.181378	24.752809	23.999285
17.8400	17.8450	10	0	1595.9339	765.99145	24.161444	24.734148	23.982677
17.8450	17.8500	8	3	1595.4804	765.18741	24.194416	24.767534	24.017420
17.8500	17.8550	3	1	1595.1267	764.79519	24.249663	24.822833	24.073784
17.8550	17.8600	7	2	1594.8379	764.67822	24.319824	24.893260	24.144921
17.8600	17.8650	11	0	1594.8025	765.63591	24.448324	25.022867	24.273856
17.8650	17.8700	5	0	1594.7670	766.59398	24.576874	25.152523	24.402841
17.8700	17.8750	12	1	1594.7286	767.61430	24.708536	25.284889	24.534265
17.8750	17.8800	5	1	1594.6889	768.66099	24.841528	25.418417	24.666735
17.8800	17.8850	9	2	1594.5531	769.11712	24.938793	25.516111	24.764437
17.8850	17.8900	9	3	1594.0416	767.26328	24.896206	25.473536	24.726029
17.8900	17.8950	12	1	1593.5304	765.41013	24.853635	25.430978	24.687637
17.8950	17.9000	10	0	1592.8842	762.66120	24.756758	25.332979	24.595241
17.9000	17.9050	8	2	1592.1808	759.53387	24.636967	25.211588	24.480060
17.9050	17.9100	3	1	1591.5577	756.77287	24.537826	25.111158	24.384992
17.9100	17.9150	8	2	1591.2478	755.44251	24.519308	25.092564	24.368444
17.9150	17.9200	7	0	1590.9379	754.11215	24.500790	25.073971	24.351895
17.9200	17.9250	8	4	1591.1915	755.11628	24.616160	25.191334	24.465868
17.9250	17.9300	7	2	1591.6824	757.10271	24.787835	25.365872	24.634728
17.9300	17.9350	9	0	1592.2183	759.70035	24.997383	25.578572	24.839263
17.9350	17.9400	8	2	1592.9310	764.69193	25.355288	25.940757	25.183551
17.9400	17.9450	7	1	1593.6437	769.68351	25.713193	26.302942	25.527838
17.9450	17.9500	8	4	1593.5798	772.81959	25.965821	26.559648	25.774188
17.9500	17.9550	13	0	1593.1895	775.17586	26.174215	26.772034	25.979390
17.9550	17.9600	8	1	1592.6345	776.57321	26.323154	26.924249	26.126527
17.9600	17.9650	15	0	1591.4370	774.21916	26.239384	26.840936	26.046391
17.9650	17.9700	11	2	1590.2395	771.86510	26.155613	26.757624	25.966255
17.9700	17.9750	7	2	1589.0238	768.30595	25.951707	26.552121	25.767920
17.9750	17.9800	5	1	1587.8005	764.23883	25.697137	26.295090	25.519739
17.9800	17.9850	10	3	1586.7075	760.75516	25.477749	26.073231	25.305891
17.9850	17.9900	9	1	1586.1223	759.54888	25.395673	25.988644	25.226048
17.9900	17.9950	9	2	1585.5369	758.34215	25.313566	25.904025	25.146174
17.9950	18.0000	7	1	1585.8271	761.42017	25.488681	26.078820	25.318386
