# do not edit -- automatically generated Mon Aug 27 17:14:16 2018 from /susfu/kashyap/solar/ISSI/Capella_O7/binned_14t18.pro
# 
# events in wavelength region [14.00,18.00] Ang
# 
# BACKSCAL = 15.6250
#columns are:
#WLOW: wavelength grid bin lower bound [Angstrom]
#WHIGH: wavelength grid bin upper bound [Angstrom]
#SRCCT: counts in bin [ct]
#BKGCT: background counts in bin [ct]
#EA{p|n}_OBSID: effective area for each ObsID [cm^2 ksec]
WLOW	WHIGH	SRCCT	BKGCT	EAp_00055	EAp_01225	EAp_08319	EAp_18358	EAp_18360	EAp_18362
N	N	N	N	N	N	N	N	N	N
14.0000	14.0050	101	13	1919.4019	212.15301	1459.4095	96.047001	92.438942	92.870670
14.0050	14.0100	93	6	1911.8244	208.98860	1458.7217	95.885447	91.820829	94.282595
14.0100	14.0150	90	13	1901.8163	204.61455	1458.0567	95.605593	90.994013	95.789430
14.0150	14.0200	93	14	1891.8120	200.24217	1457.3919	95.325845	90.167511	97.295691
14.0200	14.0250	123	11	1875.4849	197.55681	1456.7943	95.252021	89.672761	98.086253
14.0250	14.0300	135	15	1856.7836	195.50545	1456.2222	95.255567	89.302683	98.607871
14.0300	14.0350	148	16	1835.7713	193.68244	1455.6936	95.172950	88.948560	98.986337
14.0350	14.0400	162	19	1806.8563	192.63627	1455.3131	94.796420	88.648478	98.877029
14.0400	14.0450	142	10	1777.9523	191.59049	1454.9327	94.420034	88.348510	98.767762
14.0450	14.0500	150	12	1755.1504	192.13511	1454.6366	94.382360	88.874959	98.658765
14.0500	14.0550	140	11	1734.6533	193.27704	1454.3724	94.471978	89.711660	98.549926
14.0550	14.0600	174	13	1716.3173	194.62054	1454.0738	94.459107	90.594667	98.437081
14.0600	14.0650	161	17	1705.3687	196.64793	1453.6587	94.097371	91.633822	98.310786
14.0650	14.0700	159	13	1694.4201	198.67533	1453.2436	93.735635	92.672977	98.184490
14.0700	14.0750	138	17	1691.6992	200.48273	1452.7219	93.588557	93.494916	98.063867
14.0750	14.0800	130	8	1692.0728	202.20649	1452.1604	93.522253	94.234764	97.945440
14.0800	14.0850	139	15	1693.5641	203.61654	1451.5793	93.410367	95.057220	97.826731
14.0850	14.0900	122	11	1698.8607	203.95543	1450.9323	93.143371	96.159732	97.707260
14.0900	14.0950	113	12	1704.1593	204.29445	1450.2850	92.876274	97.262666	97.587744
14.0950	14.1000	110	14	1716.9442	205.23113	1449.5722	92.505399	97.946409	97.467340
14.1000	14.1050	105	11	1732.5455	206.39263	1448.8344	92.095417	98.472911	97.346562
14.1050	14.1100	104	13	1747.2454	207.33874	1448.0898	91.735872	98.890112	97.224653
14.1100	14.1150	104	15	1758.8684	207.55004	1447.3222	91.548416	98.934456	97.098906
14.1150	14.1200	103	14	1770.4958	207.76142	1446.5543	91.360888	98.978817	96.973112
14.1200	14.1250	118	12	1776.7090	208.04007	1445.8361	90.868831	98.901489	96.856365
14.1250	14.1300	100	8	1780.8897	208.34417	1445.1361	90.262016	98.778366	96.742959
14.1300	14.1350	97	9	1784.9283	208.62046	1444.4437	89.817955	98.656684	96.628605
14.1350	14.1400	112	10	1788.4893	208.80236	1443.7754	89.928192	98.539708	96.510829
14.1400	14.1450	124	10	1792.0489	208.98419	1443.1073	90.038387	98.422777	96.393098
14.1450	14.1500	97	11	1795.4581	208.90428	1442.4143	89.867953	98.307936	96.277974
14.1500	14.1550	107	8	1798.8105	208.72590	1441.7120	89.591959	98.193889	96.163839
14.1550	14.1600	122	14	1801.7489	208.58190	1440.9970	89.258181	98.077458	96.047329
14.1600	14.1650	138	17	1803.2769	208.55515	1440.2378	88.726707	97.952760	95.922584
14.1650	14.1700	147	19	1804.8042	208.52842	1439.4789	88.195436	97.828110	95.797887
14.1700	14.1750	218	10	1807.9268	208.70641	1438.7337	87.838672	97.697690	95.675009
14.1750	14.1800	233	22	1811.6479	208.96133	1437.9940	87.547748	97.565167	95.552879
14.1800	14.1850	292	23	1814.4502	209.20851	1437.2464	87.116263	97.435336	95.431200
14.1850	14.1900	392	21	1814.1161	209.42886	1436.4733	86.206453	97.314895	95.311259
14.1900	14.1950	450	32	1813.7820	209.64922	1435.7002	85.296643	97.194455	95.191319
14.1950	14.2000	432	54	1814.4796	209.52022	1434.9419	85.427326	97.068692	95.068740
14.2000	14.2050	527	47	1815.5651	209.25980	1434.1896	85.949561	96.940992	94.945232
14.2050	14.2100	557	48	1816.8645	209.13906	1433.4458	86.369199	96.814564	94.820331
14.2100	14.2150	503	31	1818.8916	209.49508	1432.7325	86.438094	96.692688	94.690888
14.2150	14.2200	497	38	1820.9195	209.85124	1432.0190	86.507016	96.570766	94.561395
14.2200	14.2250	430	29	1822.2603	210.47382	1431.3878	87.222240	96.446307	94.434938
14.2250	14.2300	475	27	1823.3432	211.19677	1430.7874	88.180657	96.320852	94.309580
14.2300	14.2350	372	31	1824.5144	211.65530	1430.1950	89.011638	96.196910	94.184748
14.2350	14.2400	336	26	1825.9865	211.21134	1429.6303	89.407557	96.078152	94.061732
14.2400	14.2450	318	28	1827.4591	210.76720	1429.0654	89.803626	95.959348	93.938669
14.2450	14.2500	274	24	1827.9715	210.48616	1428.5137	90.450247	95.840823	93.819795
14.2500	14.2550	273	29	1828.1225	210.26637	1427.9667	91.191534	95.722342	93.702436
14.2550	14.2600	237	15	1828.0534	210.20304	1427.4137	91.914916	95.604241	93.584004
14.2600	14.2650	248	15	1827.2320	210.67403	1426.8394	92.578358	95.487243	93.461709
14.2650	14.2700	210	20	1826.4109	211.14483	1426.2653	93.241547	95.370290	93.339460
14.2700	14.2750	228	15	1828.1568	211.18307	1425.6691	93.448730	95.255672	93.221133
14.2750	14.2800	165	20	1830.8692	211.05842	1425.0647	93.484187	95.141941	93.104292
14.2800	14.2850	175	17	1832.9554	210.88001	1424.4541	93.523531	95.023891	92.985215
14.2850	14.2900	138	13	1832.9030	210.51764	1423.8222	93.576199	94.890956	92.858374
14.2900	14.2950	114	7	1832.8507	210.15540	1423.1905	93.628848	94.758072	92.731582
14.2950	14.3000	117	11	1832.9009	210.30238	1422.5307	93.561993	94.631048	92.610051
14.3000	14.3050	130	12	1832.9897	210.64108	1421.8605	93.450159	94.506299	92.490565
14.3050	14.3100	90	21	1832.9670	210.91839	1421.1843	93.336176	94.382674	92.370254
14.3100	14.3150	96	11	1832.5634	210.98561	1420.4883	93.215049	94.263100	92.247327
14.3150	14.3200	98	13	1832.1598	211.05283	1419.7923	93.093923	94.143526	92.124401
14.3200	14.3250	91	13	1831.9824	211.09359	1419.0671	92.980533	94.024314	92.002906
14.3250	14.3300	106	11	1831.8902	211.12435	1418.3312	92.870117	93.905301	91.882015
14.3300	14.3350	114	18	1832.0053	211.20487	1417.5945	92.755899	93.786132	91.760674
14.3350	14.3400	129	16	1832.8280	211.45522	1416.8559	92.628883	93.666628	91.638002
14.3400	14.3450	156	19	1833.6510	211.70568	1416.1171	92.501819	93.547078	91.515282
14.3450	14.3500	161	18	1833.8228	211.59348	1415.3513	92.374348	93.416874	91.381987
14.3500	14.3550	197	14	1833.7495	211.34470	1414.5751	92.246681	93.282613	91.244666
14.3550	14.3600	212	21	1833.6471	211.16773	1413.8010	92.119570	93.149263	91.109625
14.3600	14.3650	215	24	1833.4457	211.23613	1413.0342	91.994382	93.019049	90.982398
14.3650	14.3700	240	25	1833.2442	211.30456	1412.2672	91.869145	92.888784	90.855123
14.3700	14.3750	264	15	1833.6562	211.41251	1411.4864	91.742033	92.763938	90.726395
14.3750	14.3800	254	18	1834.2995	211.53539	1410.7000	91.614149	92.641067	90.597054
14.3800	14.3850	245	20	1834.7844	211.65388	1409.9075	91.486535	92.517172	90.467466
14.3850	14.3900	246	25	1834.7286	211.75755	1409.0927	91.359634	92.389570	90.336818
14.3900	14.3950	237	19	1834.6729	211.86119	1408.2781	91.232781	92.262016	90.206220
14.3950	14.4000	223	19	1835.5616	211.74882	1407.4537	91.105214	92.135712	90.080235
14.4000	14.4050	198	21	1836.8062	211.55507	1406.6256	90.977388	92.009887	89.955998
14.4050	14.4100	191	14	1837.2295	211.36640	1405.8134	90.853272	91.882369	89.831341
14.4100	14.4150	183	14	1834.8433	211.19492	1405.0550	90.741724	91.748927	89.705122
14.4150	14.4200	166	17	1832.4580	211.02350	1404.2968	90.630219	91.615536	89.578952
14.4200	14.4250	168	25	1831.5436	211.27191	1403.6076	90.514788	91.484957	89.451853
14.4250	14.4300	189	14	1831.1843	211.67845	1402.9447	90.397937	91.355508	89.324472
14.4300	14.4350	143	24	1831.1917	211.95879	1402.2943	90.280214	91.226400	89.198393
14.4350	14.4400	151	16	1832.4520	211.80751	1401.6876	90.159705	91.098678	89.076975
14.4400	14.4450	166	10	1833.7122	211.65624	1401.0808	90.039196	90.970955	88.955558
14.4450	14.4500	148	14	1833.5964	211.64387	1400.5012	89.916147	90.852154	88.833212
14.4500	14.4550	136	17	1832.9616	211.68391	1399.9321	89.792205	90.736779	88.710581
14.4550	14.4600	136	13	1832.3732	211.68744	1399.3443	89.668250	90.619399	88.588061
14.4600	14.4650	142	7	1831.9449	211.56611	1398.6934	89.544460	90.495355	88.466129
14.4650	14.4700	119	12	1831.5164	211.44473	1398.0423	89.420624	90.371263	88.344151
14.4700	14.4750	128	16	1831.6414	211.45528	1397.3501	89.300626	90.243222	88.209148
14.4750	14.4800	133	16	1831.9751	211.51557	1396.6421	89.182033	90.113649	88.069190
14.4800	14.4850	112	11	1831.8112	211.51363	1395.9260	89.062108	89.983101	87.928500
14.4850	14.4900	115	10	1829.9454	211.29876	1395.1822	88.937646	89.849244	87.785330
14.4900	14.4950	125	10	1828.0789	211.08382	1394.4382	88.813136	89.715336	87.642106
14.4950	14.5000	109	8	1828.5935	211.15090	1393.6730	88.696777	89.581236	87.506921
14.5000	14.5050	101	8	1830.0062	211.32435	1392.8993	88.583429	89.446994	87.374697
14.5050	14.5100	137	15	1831.1246	211.41421	1392.1291	88.467752	89.316348	87.245391
14.5100	14.5150	154	18	1831.2377	211.21813	1391.3698	88.343902	89.197789	87.125859
14.5150	14.5200	153	15	1831.3508	211.02212	1390.6109	88.220100	89.079275	87.006372
14.5200	14.5250	157	20	1830.3204	210.98435	1389.8774	88.095286	88.966050	86.916076
14.5250	14.5300	202	15	1828.8585	211.00630	1389.1537	87.970098	88.854829	86.836806
14.5300	14.5350	231	15	1827.9888	210.94844	1388.4504	87.846250	88.739684	86.757075
14.5350	14.5400	207	25	1829.1472	210.61709	1387.8165	87.726866	88.610973	86.675688
14.5400	14.5450	225	14	1830.3052	210.28587	1387.1829	87.607527	88.482312	86.594331
14.5450	14.5500	240	22	1829.5722	210.27489	1386.5560	87.489142	88.353160	86.501959
14.5500	14.5550	255	17	1828.1263	210.38474	1385.9320	87.371178	88.223891	86.405480
14.5550	14.5600	217	16	1827.1246	210.43254	1385.2961	87.251776	88.093797	86.306298
14.5600	14.5650	189	13	1827.6455	210.26787	1384.6205	87.127655	87.961100	86.198032
14.5650	14.5700	165	8	1828.1665	210.10320	1383.9450	87.003533	87.828403	86.089767
14.5700	14.5750	179	9	1827.6597	210.16446	1383.2215	86.885237	87.712410	85.976482
14.5750	14.5800	155	22	1826.7650	210.31104	1382.4801	86.769205	87.602787	85.861360
14.5800	14.5850	140	17	1825.7781	210.43617	1381.7343	86.650970	87.491819	85.745506
14.5850	14.5900	128	13	1824.4776	210.48768	1380.9739	86.525393	87.376438	85.627341
14.5900	14.5950	113	10	1823.1765	210.53921	1380.2133	86.399768	87.261013	85.509131
14.5950	14.6000	105	11	1823.4610	210.32832	1379.4839	86.275874	87.158650	85.392373
14.6000	14.6050	108	13	1824.3435	210.01837	1378.7660	86.152591	87.061180	85.276124
14.6050	14.6100	105	6	1824.8453	209.82469	1378.0538	86.029978	86.965977	85.158155
14.6100	14.6150	85	13	1824.0424	210.02939	1377.3609	85.909684	86.878559	85.034322
14.6150	14.6200	81	6	1823.2392	210.23417	1376.6677	85.789343	86.791107	84.910441
14.6200	14.6250	83	9	1821.9767	210.19216	1376.0187	85.671848	86.689823	84.791510
14.6250	14.6300	85	6	1820.5401	210.05694	1375.3859	85.555366	86.583264	84.674385
14.6300	14.6350	65	9	1819.7610	209.86431	1374.7526	85.438571	86.476482	84.558112
14.6350	14.6400	70	8	1821.2331	209.47464	1374.1161	85.320507	86.368758	84.444556
14.6400	14.6450	95	13	1822.7046	209.08511	1373.4800	85.202489	86.261075	84.331045
14.6450	14.6500	102	11	1820.8839	209.35229	1372.8208	85.063531	86.150826	84.218464
14.6500	14.6550	92	6	1817.8197	209.86752	1372.1530	84.916673	86.039616	84.106243
14.6550	14.6600	104	12	1815.5539	210.23249	1371.4819	84.776849	85.928087	83.992586
14.6600	14.6650	109	8	1816.0250	210.08240	1370.7991	84.661011	85.815347	83.873884
14.6650	14.6700	124	11	1816.4958	209.93237	1370.1165	84.545217	85.702650	83.755227
14.6700	14.6750	113	8	1817.2819	210.15694	1369.4352	84.422971	85.587199	83.636436
14.6750	14.6800	126	11	1818.1865	210.52288	1368.7546	84.298352	85.470767	83.517656
14.6800	14.6850	93	9	1818.2276	210.69379	1368.0667	84.176892	85.353447	83.398147
14.6850	14.6900	127	15	1815.3095	210.19614	1367.3548	84.066456	85.233279	83.276345
14.6900	14.6950	116	9	1812.3914	209.69848	1366.6430	83.956020	85.113110	83.154542
14.6950	14.7000	107	12	1812.5331	209.52177	1365.9682	83.838473	84.991326	83.030493
14.7000	14.7050	108	10	1813.8314	209.46645	1365.3077	83.718301	84.868995	82.905661
14.7050	14.7100	90	5	1814.2710	209.35196	1364.6532	83.596760	84.747064	82.782382
14.7100	14.7150	91	9	1811.7666	209.03485	1364.0200	83.470729	84.626714	82.664637
14.7150	14.7200	84	7	1809.2613	208.71761	1363.3867	83.344650	84.506317	82.546847
14.7200	14.7250	75	9	1807.2337	208.12476	1362.7162	83.223461	84.388403	82.430279
14.7250	14.7300	103	10	1805.3858	207.42762	1362.0315	83.104078	84.271388	82.314135
14.7300	14.7350	88	14	1803.9668	206.91140	1361.3338	82.981742	84.153756	82.199271
14.7350	14.7400	87	12	1804.0187	207.01581	1360.5917	82.849303	84.034031	82.088825
14.7400	14.7450	97	9	1804.0707	207.12026	1359.8494	82.716813	83.914260	81.978336
14.7450	14.7500	84	11	1801.8507	207.20314	1358.7379	82.589344	83.771301	81.849488
14.7500	14.7550	78	5	1798.7706	207.27791	1357.4864	82.463706	83.619503	81.713633
14.7550	14.7600	85	9	1796.3621	207.18162	1356.2775	82.336974	83.471053	81.578516
14.7600	14.7650	77	13	1796.2538	206.49821	1355.2130	82.206274	83.333845	81.445701
14.7650	14.7700	86	10	1796.1456	205.81507	1354.1490	82.075625	83.196689	81.312936
14.7700	14.7750	88	8	1795.0462	205.99314	1353.2980	81.975836	83.071586	81.193845
14.7750	14.7800	74	7	1793.5722	206.49682	1352.5276	81.887725	82.951050	81.079933
14.7800	14.7850	60	10	1791.8866	206.81190	1351.7664	81.796036	82.832555	80.965976
14.7850	14.7900	57	3	1789.4725	206.47949	1351.0360	81.691966	82.720948	80.851751
14.7900	14.7950	69	5	1787.0593	206.14721	1350.3059	81.587935	82.609383	80.737569
14.7950	14.8000	49	10	1785.5453	205.72327	1349.5668	81.481001	82.498228	80.624510
14.8000	14.8050	51	5	1784.3723	205.26489	1348.8247	81.373027	82.387286	80.511935
14.8050	14.8100	63	10	1783.1535	204.89331	1348.0716	81.265301	82.277303	80.400215
14.8100	14.8150	69	6	1781.7799	204.82001	1347.2823	81.158613	82.170798	80.291615
14.8150	14.8200	73	9	1780.4063	204.74672	1346.4930	81.051924	82.064293	80.183014
14.8200	14.8250	57	6	1778.8291	204.38791	1345.6257	80.940880	81.954657	80.074544
14.8250	14.8300	79	7	1777.1756	203.92127	1344.7293	80.828245	81.843895	79.966181
14.8300	14.8350	65	6	1775.4608	203.50624	1343.7466	80.715628	81.732581	79.857931
14.8350	14.8400	64	4	1773.5381	203.26898	1342.4689	80.603260	81.619567	79.750254
14.8400	14.8450	61	6	1771.6146	203.03162	1341.1907	80.490849	81.506509	79.642536
14.8450	14.8500	59	10	1767.2422	202.36710	1339.9033	80.377683	81.393916	79.533213
14.8500	14.8550	64	14	1761.9426	201.54088	1338.6120	80.264193	81.281460	79.423247
14.8550	14.8600	62	14	1757.0643	200.64825	1337.3655	80.149705	81.169051	79.312781
14.8600	14.8650	56	10	1753.6335	199.52778	1336.2733	80.031816	81.056820	79.200621
14.8650	14.8700	53	9	1750.2014	198.40688	1335.1807	79.913882	80.944547	79.088418
14.8700	14.8750	65	7	1744.1491	196.98961	1334.4825	79.800206	80.833404	78.973099
14.8750	14.8800	42	8	1737.1021	195.45945	1333.9332	79.688082	80.722630	78.856540
14.8800	14.8850	77	13	1729.8995	193.74442	1333.4030	79.574859	80.612409	78.739774
14.8850	14.8900	72	10	1722.1501	191.39137	1332.9374	79.457672	80.503899	78.622100
14.8900	14.8950	86	12	1714.4035	189.03923	1332.4720	79.340531	80.395429	78.504471
14.8950	14.9000	79	3	1705.7546	188.17628	1332.0484	79.231136	80.287237	78.389162
14.9000	14.9050	89	5	1696.7646	187.87708	1331.6406	79.124681	80.179159	78.274739
14.9050	14.9100	84	11	1687.1231	188.02980	1331.1974	79.016054	80.069836	78.160684
14.9100	14.9150	78	9	1675.2309	189.73686	1330.6319	78.899843	79.956123	78.047778
14.9150	14.9200	126	10	1663.3432	191.44327	1330.0667	78.783676	79.842453	77.934915
14.9200	14.9250	94	16	1656.3247	194.44284	1329.4463	78.666535	79.730323	77.826453
14.9250	14.9300	104	11	1651.1533	197.93037	1328.8052	78.549087	79.618835	77.719714
14.9300	14.9350	109	15	1649.3135	201.46707	1328.1419	78.432687	79.507258	77.613865
14.9350	14.9400	102	17	1658.9168	205.16659	1327.4034	78.320086	79.395565	77.511255
14.9400	14.9450	125	9	1668.5201	208.86611	1326.6649	78.207484	79.283873	77.408645
14.9450	14.9500	104	11	1682.6717	211.38374	1325.9022	78.092923	79.169171	77.298059
14.9500	14.9550	122	20	1698.5383	213.45245	1325.1308	77.977681	79.053389	77.184510
14.9550	14.9600	147	10	1716.2463	215.17749	1324.3789	77.863254	78.935828	77.069998
14.9600	14.9650	180	14	1740.2497	215.71900	1323.6951	77.751824	78.812353	76.952372
14.9650	14.9700	205	16	1764.2624	216.26072	1323.0110	77.640351	78.688830	76.834701
14.9700	14.9750	205	22	1783.8597	216.39274	1322.2309	77.524013	78.564877	76.708037
14.9750	14.9800	267	25	1801.7926	216.36977	1321.4142	77.405795	78.440719	76.577927
14.9800	14.9850	373	27	1819.3687	216.34414	1320.5884	77.288226	78.318297	76.449588
14.9850	14.9900	473	31	1835.7141	216.30940	1319.7315	77.172913	78.201871	76.327359
14.9900	14.9950	605	47	1852.0657	216.27464	1318.8744	77.057556	78.085400	76.205084
14.9950	15.0000	780	51	1860.9566	216.24096	1318.1566	76.939883	77.968146	76.082737
15.0000	15.0050	892	50	1867.0259	216.20767	1317.4913	76.821272	77.850534	75.960297
15.0050	15.0100	1030	61	1871.7675	216.17508	1316.8286	76.702376	77.732158	75.838833
15.0100	15.0150	1060	66	1871.9502	216.14483	1316.1738	76.582303	77.610956	75.720514
15.0150	15.0200	1035	62	1872.1329	216.11459	1315.5192	76.462275	77.489800	75.602240
15.0200	15.0250	982	58	1871.9912	216.08498	1314.8719	76.344312	77.371504	75.488623
15.0250	15.0300	835	62	1871.7265	216.05561	1314.2274	76.227140	77.254299	75.376778
15.0300	15.0350	721	42	1871.4612	216.02562	1313.5583	76.109631	77.135464	75.263261
15.0350	15.0400	642	43	1871.1932	215.99345	1312.8036	75.990842	77.010897	75.143872
15.0400	15.0450	580	49	1870.9252	215.96130	1312.0493	75.872098	76.886376	75.024529
15.0450	15.0500	508	38	1870.6586	215.93032	1311.3045	75.754758	76.763395	74.904216
15.0500	15.0550	433	33	1870.3927	215.89981	1310.5636	75.638011	76.641062	74.783599
15.0550	15.0600	344	36	1870.1262	215.86925	1309.8338	75.521716	76.519665	74.662692
15.0600	15.0650	326	24	1869.8579	215.83860	1309.1421	75.407055	76.401574	74.540870
15.0650	15.0700	301	33	1869.5898	215.80795	1308.4506	75.292415	76.283506	74.419071
15.0700	15.0750	261	21	1869.3218	215.77861	1307.7237	75.176056	76.167474	74.301433
15.0750	15.0800	246	19	1869.0542	215.74979	1306.9838	75.059104	76.052276	74.185435
15.0800	15.0850	246	22	1868.7860	215.72045	1306.2481	74.942451	75.935814	74.069748
15.0850	15.0900	209	18	1868.5167	215.68935	1305.5283	74.827021	75.815198	73.955331
15.0900	15.0950	170	13	1868.2473	215.65823	1304.8081	74.711547	75.694536	73.840870
15.0950	15.1000	168	18	1867.9726	215.62687	1304.0483	74.596041	75.578877	73.723126
15.1000	15.1050	143	11	1867.6958	215.59539	1303.2732	74.480486	75.465075	73.604098
15.1050	15.1100	164	11	1867.4202	215.56383	1302.5074	74.365772	75.351164	73.484853
15.1100	15.1150	126	14	1867.1489	215.53197	1301.7734	74.253979	75.236901	73.364886
15.1150	15.1200	104	12	1866.8775	215.50010	1301.0392	74.142143	75.122594	73.244872
15.1200	15.1250	122	8	1866.6045	215.46908	1300.3099	74.029151	75.008304	73.124473
15.1250	15.1300	93	8	1866.3308	215.43837	1299.5820	73.915661	74.893961	73.003864
15.1300	15.1350	94	15	1866.0562	215.40746	1298.8475	73.800750	74.779033	72.883302
15.1350	15.1400	69	9	1865.7781	215.37577	1298.0885	73.680751	74.661900	72.762697
15.1400	15.1450	78	11	1865.5002	215.34410	1297.3298	73.560798	74.544812	72.642139
15.1450	15.1500	93	9	1865.2231	215.31252	1296.5436	73.440423	74.426131	72.527509
15.1500	15.1550	109	14	1864.9464	215.28097	1295.7469	73.319898	74.306854	72.415137
15.1550	15.1600	125	11	1864.6689	215.24957	1294.9323	73.201753	74.187913	72.301995
15.1600	15.1650	127	16	1864.3884	215.21866	1294.0546	73.091694	74.070007	72.186079
15.1650	15.1700	136	13	1864.1079	215.18777	1293.1773	72.981677	73.952145	72.070207
15.1700	15.1750	136	17	1863.8316	215.15642	1292.4165	72.870065	73.832228	71.961059
15.1750	15.1800	146	15	1863.5569	215.12492	1291.7005	72.757908	73.711594	71.854521
15.1800	15.1850	169	7	1863.2816	215.09340	1290.9843	72.645660	73.590400	71.748207
15.1850	15.1900	163	13	1863.0045	215.06185	1290.2683	72.533173	73.467356	71.642740
15.1900	15.1950	194	16	1862.7276	215.03031	1289.5525	72.420708	73.344336	71.537292
15.1950	15.2000	196	23	1862.4271	214.99548	1288.8182	72.303219	73.222655	71.427359
15.2000	15.2050	193	16	1862.1179	214.95942	1288.0774	72.183885	73.101546	71.315782
15.2050	15.2100	176	15	1861.8092	214.92363	1287.3312	72.064763	72.980917	71.203174
15.2100	15.2150	228	17	1861.5028	214.88879	1286.5681	71.946573	72.862141	71.087207
15.2150	15.2200	176	15	1861.1964	214.85394	1285.8047	71.828338	72.743320	70.971196
15.2200	15.2250	202	16	1860.8892	214.81944	1284.9904	71.709805	72.627478	70.851768
15.2250	15.2300	232	12	1860.5816	214.78504	1284.1566	71.591119	72.512725	70.731004
15.2300	15.2350	207	16	1860.2740	214.75067	1283.3348	71.473619	72.398779	70.610212
15.2350	15.2400	288	22	1859.9662	214.71635	1282.5546	71.360221	72.287634	70.489348
15.2400	15.2450	320	31	1859.6582	214.68202	1281.7741	71.246780	72.176446	70.368438
15.2450	15.2500	456	24	1859.3537	214.64673	1280.9465	71.133057	72.065303	70.244970
15.2500	15.2550	443	21	1859.0504	214.61106	1280.1005	71.019167	71.954117	70.120467
15.2550	15.2600	480	27	1858.7455	214.57554	1279.2675	70.905246	71.843404	69.997153
15.2600	15.2650	468	18	1858.4349	214.54043	1278.4778	70.791024	71.734128	69.877727
15.2650	15.2700	439	26	1858.1245	214.50533	1277.6885	70.676845	71.624895	69.758346
15.2700	15.2750	432	21	1857.8266	214.47147	1276.8860	70.564965	71.515492	69.643601
15.2750	15.2800	363	20	1857.5335	214.43810	1276.0786	70.453967	71.406034	69.530623
15.2800	15.2850	347	16	1857.2308	214.40362	1275.2692	70.342193	71.294719	69.415794
15.2850	15.2900	295	18	1856.8948	214.36534	1274.4519	70.227625	71.176887	69.294459
15.2900	15.2950	264	27	1856.5589	214.32707	1273.6349	70.113101	71.059099	69.173170
15.2950	15.3000	210	16	1856.2222	214.28851	1272.8909	69.998402	70.940171	69.049200
15.3000	15.3050	188	10	1855.8854	214.24987	1272.1750	69.883697	70.820872	68.924277
15.3050	15.3100	184	16	1855.5488	214.21133	1271.4411	69.769022	70.701501	68.796278
15.3100	15.3150	135	14	1855.2128	214.17319	1270.6460	69.654527	70.581954	68.657749
15.3150	15.3200	131	6	1854.8770	214.13506	1269.8510	69.540055	70.462431	68.519247
15.3200	15.3250	108	9	1854.5429	214.09742	1269.0950	69.427075	70.342232	68.388928
15.3250	15.3300	81	7	1854.2098	214.05999	1268.3543	69.314721	70.221840	68.261788
15.3300	15.3350	88	13	1853.8765	214.02213	1267.6120	69.202010	70.102061	68.141100
15.3350	15.3400	83	9	1853.5429	213.98290	1266.8656	69.088256	69.984600	68.042868
15.3400	15.3450	93	11	1853.2091	213.94366	1266.1189	68.974458	69.867093	67.944597
15.3450	15.3500	101	7	1852.8746	213.90117	1265.3434	68.859411	69.744790	67.840488
15.3500	15.3550	107	13	1852.5397	213.85743	1264.5568	68.743851	69.620626	67.734128
15.3550	15.3600	87	11	1852.2037	213.81474	1263.7562	68.628257	69.496923	67.628794
15.3600	15.3650	102	3	1851.8639	213.77568	1262.9080	68.512567	69.374836	67.527013
15.3650	15.3700	94	8	1851.5240	213.73661	1262.0594	68.396833	69.252701	67.425193
15.3700	15.3750	110	15	1851.1439	213.69766	1261.1945	68.279697	69.119703	67.321115
15.3750	15.3800	81	6	1850.7484	213.65873	1260.3229	68.161966	68.982507	67.216124
15.3800	15.3850	91	8	1850.3658	213.61998	1259.4655	68.045958	68.847396	67.108766
15.3850	15.3900	69	12	1850.0273	213.58174	1258.6556	67.935703	68.719251	66.993053
15.3900	15.3950	67	8	1849.6889	213.54352	1257.8461	67.825489	68.591154	66.877384
15.3950	15.4000	61	10	1849.3522	213.50538	1257.0214	67.715793	68.477302	66.764332
15.4000	15.4050	61	5	1849.0162	213.46728	1256.1911	67.606300	68.368873	66.652283
15.4050	15.4100	77	8	1848.6807	213.42916	1255.3560	67.496218	68.260277	66.540488
15.4100	15.4150	72	6	1848.3463	213.39090	1254.5031	67.383984	68.150988	66.429451
15.4150	15.4200	70	9	1848.0121	213.35265	1253.6506	67.271792	68.041740	66.318456
15.4200	15.4250	74	8	1847.6541	213.31217	1252.8003	67.162360	67.940168	66.210842
15.4250	15.4300	79	5	1847.2873	213.27085	1251.9513	67.054034	67.841565	66.104569
15.4300	15.4350	88	11	1846.9198	213.22919	1251.1068	66.944737	67.741028	65.998736
15.4350	15.4400	94	16	1846.5501	213.18636	1250.2781	66.832159	67.633879	65.894491
15.4400	15.4450	126	13	1846.1805	213.14355	1249.4496	66.719601	67.526750	65.790267
15.4450	15.4500	126	15	1845.8132	213.10180	1248.6686	66.607904	67.417863	65.685062
15.4500	15.4550	128	9	1845.4468	213.06048	1247.9059	66.496594	67.308365	65.579539
15.4550	15.4600	111	11	1845.0793	213.01917	1247.1320	66.384871	67.197685	65.474107
15.4600	15.4650	114	9	1844.7085	212.97798	1246.3202	66.271914	67.083117	65.369172
15.4650	15.4700	108	9	1844.3374	212.93676	1245.5082	66.158913	66.968505	65.264197
15.4700	15.4750	115	7	1843.9693	212.89432	1244.7286	66.044608	66.858697	65.157038
15.4750	15.4800	90	4	1843.6021	212.85140	1243.9611	65.929769	66.750678	65.049012
15.4800	15.4850	99	10	1843.2342	212.80868	1243.1785	65.814649	66.644518	64.941885
15.4850	15.4900	100	7	1842.8642	212.76670	1242.3434	65.698580	66.544804	64.837882
15.4900	15.4950	97	13	1842.4939	212.72469	1241.5080	65.582467	66.445053	64.733839
15.4950	15.5000	79	6	1842.1195	212.68211	1240.7278	65.464059	66.337800	64.630772
15.5000	15.5050	71	3	1841.7432	212.63928	1239.9683	65.344717	66.227638	64.528021
15.5050	15.5100	70	3	1841.3657	212.59641	1239.1875	65.226200	66.118547	64.423898
15.5100	15.5150	82	5	1840.9834	212.55335	1238.3322	65.110335	66.012973	64.314858
15.5150	15.5200	81	8	1840.6013	212.51030	1237.4772	64.994515	65.907438	64.205859
15.5200	15.5250	56	4	1840.2179	212.46703	1236.6154	64.876436	65.798651	64.095045
15.5250	15.5300	44	7	1839.8340	212.42369	1235.7511	64.757506	65.688634	63.983548
15.5300	15.5350	47	5	1839.4507	212.38005	1234.9063	64.639590	65.580336	63.872959
15.5350	15.5400	52	10	1839.0689	212.33537	1234.1279	64.525056	65.477867	63.765393
15.5400	15.5450	48	12	1838.6872	212.29071	1233.3498	64.410566	65.375437	63.657868
15.5450	15.5500	29	4	1838.3045	212.24743	1232.5113	64.289510	65.273002	63.551516
15.5500	15.5550	34	7	1837.9217	212.20471	1231.6502	64.166020	65.170620	63.445665
15.5550	15.5600	38	4	1837.5391	212.16160	1230.7837	64.045144	65.066780	63.340090
15.5600	15.5650	35	9	1837.1577	212.11719	1229.8985	63.933385	64.957970	63.235539
15.5650	15.5700	43	6	1836.7763	212.07279	1229.0135	63.821648	64.849180	63.131008
15.5700	15.5750	45	10	1836.3956	212.02896	1228.1479	63.713646	64.743155	63.023128
15.5750	15.5800	33	7	1836.0152	211.98535	1227.2903	63.607124	64.638239	62.914029
15.5800	15.5850	53	7	1835.6330	211.94169	1226.4279	63.500400	64.531062	62.805677
15.5850	15.5900	49	8	1835.2451	211.89791	1225.5507	63.393157	64.416256	62.700091
15.5900	15.5950	67	8	1834.8570	211.85410	1224.6731	63.285874	64.301406	62.594464
15.5950	15.6000	78	7	1834.4754	211.81092	1223.8404	63.178929	64.189903	62.487356
15.6000	15.6050	105	8	1834.0961	211.76797	1223.0244	63.072077	64.079636	62.379648
15.6050	15.6100	130	10	1833.7165	211.72488	1222.1809	62.967259	63.969157	62.271177
15.6100	15.6150	149	9	1833.3359	211.68129	1221.2427	62.869493	63.857967	62.160085
15.6150	15.6200	156	14	1832.9551	211.63770	1220.3042	62.771690	63.746735	62.048950
15.6200	15.6250	198	9	1832.5727	211.59415	1219.3962	62.662440	63.636653	61.937167
15.6250	15.6300	201	13	1832.1894	211.55059	1218.4994	62.548776	63.526951	61.825079
15.6300	15.6350	178	16	1831.8056	211.50698	1217.5935	62.434323	63.416088	61.712076
15.6350	15.6400	178	15	1831.4192	211.46309	1216.6549	62.316950	63.301022	61.595715
15.6400	15.6450	162	12	1831.0330	211.41922	1215.7167	62.199621	63.186000	61.479399
15.6450	15.6500	139	7	1830.6497	211.37589	1214.7708	62.087110	63.068412	61.364360
15.6500	15.6550	116	9	1830.2674	211.33277	1213.8220	61.976443	62.949856	61.249815
15.6550	15.6600	106	9	1829.8899	211.28979	1212.8876	61.866199	62.833151	61.134889
15.6600	15.6650	77	7	1829.5285	211.24726	1212.0017	61.757308	62.722739	61.018526
15.6650	15.6700	64	4	1829.1673	211.20475	1211.1161	61.648459	62.612368	60.902208
15.6700	15.6750	74	2	1828.8082	211.16364	1210.1978	61.541249	62.500225	60.788478
15.6750	15.6800	48	5	1828.4501	211.12309	1209.2677	61.434719	62.387466	60.675795
15.6800	15.6850	40	6	1828.0911	211.08243	1208.3346	61.327447	62.274194	60.564056
15.6850	15.6900	34	8	1827.7294	211.04141	1207.3919	61.217676	62.159220	60.455658
15.6900	15.6950	26	3	1827.3677	211.00040	1206.4495	61.107926	62.044268	60.347282
15.6950	15.7000	23	9	1827.0085	210.95982	1205.3791	60.994347	61.932617	60.238292
15.7000	15.7050	28	3	1826.6504	210.91943	1204.2605	60.879368	61.822283	60.129127
15.7050	15.7100	24	4	1826.2922	210.87924	1203.1680	60.768178	61.711225	60.019767
15.7100	15.7150	23	5	1825.9340	210.83980	1202.1672	60.670288	61.597852	59.909920
15.7150	15.7200	21	7	1825.5757	210.80036	1201.1661	60.572361	61.484435	59.800031
15.7200	15.7250	31	7	1825.2192	210.76003	1200.1864	60.466110	61.371409	59.690407
15.7250	15.7300	41	7	1824.8632	210.71935	1199.2146	60.356655	61.258494	59.580847
15.7300	15.7350	29	6	1824.4933	210.67694	1198.2641	60.247023	61.145452	59.470932
15.7350	15.7400	28	4	1824.0758	210.62855	1197.3876	60.136797	61.031991	59.359809
15.7400	15.7450	36	7	1823.6581	210.58015	1196.5108	60.026529	60.918487	59.248643
15.7450	15.7500	30	8	1823.2006	210.52875	1196.0021	59.915082	60.807013	59.135996
15.7500	15.7550	39	7	1822.7278	210.47618	1195.6334	59.803127	60.696255	59.022726
15.7550	15.7600	40	5	1822.2565	210.42391	1195.2458	59.691056	60.585439	58.909316
15.7600	15.7650	52	4	1821.7896	210.37257	1194.7924	59.578395	60.474234	58.795231
15.7650	15.7700	49	3	1821.3230	210.32124	1194.3391	59.465776	60.363072	58.681189
15.7700	15.7750	45	9	1820.8629	210.27148	1193.8218	59.353867	60.250055	58.570980
15.7750	15.7800	52	7	1820.4055	210.22233	1193.2800	59.242237	60.136340	58.462240
15.7800	15.7850	54	10	1819.9475	210.17233	1192.6642	59.130152	60.023340	58.352796
15.7850	15.7900	47	7	1819.4872	210.11940	1191.7910	59.016374	59.912705	58.240795
15.7900	15.7950	52	8	1819.0270	210.06649	1190.9181	58.902639	59.802111	58.128837
15.7950	15.8000	78	7	1818.5795	210.01566	1189.9295	58.791425	59.687586	58.018391
15.8000	15.8050	62	10	1818.1370	209.96566	1188.8973	58.681230	59.571622	57.908580
15.8050	15.8100	106	8	1817.6993	209.91491	1187.8605	58.569767	59.455329	57.797491
15.8100	15.8150	111	6	1817.2790	209.86163	1186.8087	58.453982	59.337971	57.682049
15.8150	15.8200	127	10	1816.8588	209.80836	1185.7570	58.338219	59.220636	57.566628
15.8200	15.8250	126	7	1816.4770	209.75759	1184.7633	58.219847	59.103012	57.451317
15.8250	15.8300	154	16	1816.1101	209.70779	1183.7923	58.100542	58.985340	57.336110
15.8300	15.8350	157	10	1815.7414	209.65804	1182.8508	57.982093	58.866642	57.220346
15.8350	15.8400	140	10	1815.3671	209.60852	1182.0132	57.866811	58.744592	57.102854
15.8400	15.8450	132	10	1814.9926	209.55898	1181.1753	57.751485	58.622495	56.985316
15.8450	15.8500	143	17	1814.5956	209.50935	1180.3608	57.635023	58.504717	56.863322
15.8500	15.8550	157	12	1814.1898	209.45967	1179.5550	57.518089	58.388545	56.739588
15.8550	15.8600	178	4	1813.7809	209.41002	1178.7285	57.402284	58.273482	56.617488
15.8600	15.8650	173	8	1813.3615	209.36052	1177.8302	57.290413	58.162284	56.501075
15.8650	15.8700	168	6	1812.9420	209.31099	1176.9315	57.178499	58.051044	56.384618
15.8700	15.8750	165	13	1812.5178	209.26142	1176.0240	57.063703	57.935682	56.269117
15.8750	15.8800	151	10	1812.0915	209.21181	1175.1126	56.947747	57.818688	56.153921
15.8800	15.8850	125	12	1811.6657	209.16225	1174.2057	56.830662	57.701786	56.039632
15.8850	15.8900	122	10	1811.2406	209.11280	1173.3129	56.709463	57.585008	55.928296
15.8900	15.8950	89	13	1810.8157	209.06337	1172.4205	56.588311	57.468274	55.817001
15.8950	15.9000	89	8	1810.3666	209.01112	1171.5175	56.471280	57.350271	55.703683
15.9000	15.9050	76	4	1809.9082	208.95780	1170.6104	56.355832	57.231792	55.589600
15.9050	15.9100	74	9	1809.4496	208.90450	1169.6999	56.240050	57.113300	55.475514
15.9100	15.9150	51	10	1808.9895	208.85125	1168.7765	56.122986	56.994640	55.361298
15.9150	15.9200	47	5	1808.5297	208.79802	1167.8533	56.005966	56.876026	55.247126
15.9200	15.9250	37	9	1808.0684	208.74468	1166.9017	55.895180	56.756014	55.134984
15.9250	15.9300	43	5	1807.6068	208.69133	1165.9398	55.786830	56.635533	55.023677
15.9300	15.9350	29	7	1807.1456	208.63801	1164.9800	55.677378	56.516252	54.911917
15.9350	15.9400	31	6	1806.6857	208.58480	1164.0285	55.564173	56.401214	54.798659
15.9400	15.9450	42	5	1806.2260	208.53161	1163.0772	55.450988	56.286197	54.685423
15.9450	15.9500	58	2	1805.7667	208.47832	1162.1221	55.340313	56.171939	54.572721
15.9500	15.9550	57	13	1805.3079	208.42501	1161.1661	55.230653	56.058029	54.460283
15.9550	15.9600	54	10	1804.8488	208.37168	1160.2192	55.120433	55.944697	54.347787
15.9600	15.9650	92	8	1804.3899	208.31832	1159.3055	55.008452	55.833559	54.235279
15.9650	15.9700	88	8	1803.9308	208.26495	1158.3915	54.896429	55.722379	54.122728
15.9700	15.9750	119	9	1803.4742	208.21204	1157.4738	54.783279	55.614932	54.010219
15.9750	15.9800	158	16	1803.0184	208.15929	1156.5543	54.669660	55.508874	53.897689
15.9800	15.9850	189	19	1802.5630	208.10659	1155.6341	54.557968	55.402257	53.786568
15.9850	15.9900	247	11	1802.1094	208.05408	1154.7112	54.452979	55.293727	53.680354
15.9900	15.9950	317	27	1801.6556	208.00156	1153.7879	54.347950	55.185154	53.574100
15.9950	16.0000	340	25	1801.2044	207.94927	1152.8765	54.235847	55.072189	53.461922
16.0000	16.0050	340	23	1800.7542	207.89707	1151.9696	54.121026	54.957530	53.347468
16.0050	16.0100	343	30	1800.3041	207.84489	1151.0593	54.006617	54.842364	53.233191
16.0100	16.0150	320	16	1799.8552	207.79290	1150.1386	53.893793	54.725590	53.119682
16.0150	16.0200	318	15	1799.4065	207.74093	1149.2182	53.781011	54.608860	53.006216
16.0200	16.0250	293	20	1798.9524	207.68849	1148.3011	53.670897	54.496663	52.889898
16.0250	16.0300	268	17	1798.4960	207.63585	1147.3848	53.561761	54.386156	52.772445
16.0300	16.0350	230	17	1798.0399	207.58318	1146.4690	53.451947	54.275127	52.657273
16.0350	16.0400	247	14	1797.5845	207.53046	1145.5550	53.339822	54.162330	52.550059
16.0400	16.0450	250	14	1797.1292	207.47774	1144.6411	53.227697	54.049533	52.442844
16.0450	16.0500	218	21	1796.6749	207.42518	1143.7592	53.118012	53.934630	52.336023
16.0500	16.0550	274	24	1796.2211	207.37272	1142.8900	53.009316	53.818984	52.229407
16.0550	16.0600	294	25	1795.7729	207.32088	1142.0265	52.898681	53.704396	52.122011
16.0600	16.0650	354	25	1795.3435	207.27116	1141.1827	52.781256	53.593450	52.011859
16.0650	16.0700	362	22	1794.9141	207.22144	1140.3389	52.663832	53.482504	51.901708
16.0700	16.0750	389	22	1794.4952	207.17293	1139.4898	52.550292	53.367344	51.791020
16.0750	16.0800	361	32	1794.0802	207.12489	1138.6386	52.438219	53.250561	51.680111
16.0800	16.0850	317	24	1793.6648	207.07684	1137.7834	52.326295	53.134257	51.569125
16.0850	16.0900	316	21	1793.2489	207.02886	1136.9162	52.215079	53.019816	51.458061
16.0900	16.0950	287	24	1792.8329	206.98089	1136.0490	52.103864	52.905374	51.346997
16.0950	16.1000	267	18	1792.3578	206.92595	1135.1231	51.990326	52.794829	51.237768
16.1000	16.1050	265	16	1791.8601	206.86835	1134.1749	51.875915	52.685792	51.129258
16.1050	16.1100	185	11	1791.3432	206.80853	1133.2152	51.763750	52.577139	51.021968
16.1100	16.1150	179	18	1790.7587	206.74089	1132.2145	51.659233	52.469678	50.918772
16.1150	16.1200	152	13	1790.1740	206.67323	1131.2135	51.554676	52.362175	50.815536
16.1200	16.1250	155	20	1789.5890	206.60574	1130.2038	51.450663	52.259115	50.707736
16.1250	16.1300	123	14	1789.0039	206.53830	1129.1907	51.346843	52.157736	50.598178
16.1300	16.1350	107	14	1788.4192	206.47086	1128.1751	51.242597	52.054052	50.489701
16.1350	16.1400	112	8	1787.8369	206.40349	1127.1528	51.137011	51.942489	50.385132
16.1400	16.1450	104	10	1787.2548	206.33615	1126.1309	51.031464	51.830968	50.280602
16.1450	16.1500	104	10	1786.6862	206.27060	1125.1235	50.929932	51.728237	50.177972
16.1500	16.1550	111	11	1786.1225	206.20572	1124.1213	50.829898	51.628829	50.076030
16.1550	16.1600	98	11	1785.5594	206.14082	1123.1209	50.729200	51.528158	49.973171
16.1600	16.1650	100	16	1784.9985	206.07586	1122.1271	50.626241	51.423134	49.867172
16.1650	16.1700	88	6	1784.4376	206.01090	1121.1333	50.523282	51.318111	49.761173
16.1700	16.1750	93	6	1783.8754	205.94599	1120.1293	50.418579	51.213659	49.658932
16.1750	16.1800	106	8	1783.3130	205.88114	1119.1220	50.313265	51.109480	49.558182
16.1800	16.1850	56	3	1782.7484	205.81603	1118.1148	50.207463	51.004700	49.454557
16.1850	16.1900	76	6	1782.1755	205.74996	1117.1074	50.099918	50.897787	49.340887
16.1900	16.1950	56	8	1781.6026	205.68390	1116.1000	49.992374	50.790873	49.227217
16.1950	16.2000	57	8	1781.0837	205.62392	1115.1377	49.891951	50.682777	49.114586
16.2000	16.2050	46	2	1780.5853	205.56627	1114.1926	49.794233	50.574213	49.002337
16.2050	16.2100	38	7	1780.1041	205.51063	1113.2670	49.695100	50.466757	48.892405
16.2100	16.2150	50	6	1779.6838	205.46213	1112.4113	49.591213	50.363332	48.790713
16.2150	16.2200	38	10	1779.2635	205.41363	1111.5557	49.487326	50.259906	48.689022
16.2200	16.2250	42	3	1778.8281	205.34251	1110.6878	49.380851	50.149070	48.596026
16.2250	16.2300	36	6	1778.3869	205.26273	1109.8155	49.273400	50.035410	48.506375
16.2300	16.2350	58	4	1777.9373	205.18840	1108.9394	49.167648	49.924531	48.421336
16.2350	16.2400	57	7	1777.4575	205.13294	1108.0493	49.067664	49.823171	48.352219
16.2400	16.2450	53	6	1776.9776	205.07745	1107.1589	48.967642	49.721773	48.283075
16.2450	16.2500	54	7	1776.4982	205.02210	1106.2403	48.863781	49.622224	48.201814
16.2500	16.2550	60	7	1776.0190	204.96680	1105.3106	48.758437	49.523368	48.115908
16.2550	16.2600	69	9	1775.4837	204.91145	1104.3798	48.654446	49.421233	48.026840
16.2600	16.2650	65	6	1774.7541	204.85601	1103.4459	48.555304	49.307815	47.926885
16.2650	16.2700	60	7	1774.0248	204.80059	1102.5123	48.456200	49.194442	47.826968
16.2700	16.2750	69	8	1773.5111	204.74920	1101.6046	48.353149	49.090886	47.722925
16.2750	16.2800	72	6	1773.0797	204.69933	1100.7064	48.248549	48.991050	47.617263
16.2800	16.2850	53	4	1772.6501	204.64971	1099.8091	48.145684	48.892906	47.512921
16.2850	16.2900	58	5	1772.2274	204.60096	1098.9153	48.048884	48.800680	47.413205
16.2900	16.2950	69	9	1771.8046	204.55220	1098.0215	47.952084	48.708453	47.313489
16.2950	16.3000	65	6	1771.3630	204.50114	1097.1596	47.855248	48.620056	47.215412
16.3000	16.3050	72	4	1770.9144	204.44921	1096.3105	47.758448	48.533172	47.118014
16.3050	16.3100	75	12	1770.4547	204.39602	1095.4543	47.659897	48.445772	47.021226
16.3100	16.3150	76	6	1769.9557	204.33841	1094.5731	47.555202	48.356540	46.926528
16.3150	16.3200	78	9	1769.4567	204.28080	1093.6919	47.450507	48.267308	46.831830
16.3200	16.3250	69	8	1768.9520	204.22250	1092.8023	47.347946	48.177402	46.738626
16.3250	16.3300	72	3	1768.4450	204.16393	1091.9094	47.246184	48.087224	46.645980
16.3300	16.3350	66	5	1767.9383	204.10537	1091.0126	47.143602	47.995390	46.552300
16.3350	16.3400	69	2	1767.4335	204.04695	1090.1039	47.038337	47.897945	46.455183
16.3400	16.3450	72	4	1766.9288	203.98853	1089.1952	46.933072	47.800499	46.358066
16.3450	16.3500	71	7	1766.4237	203.93012	1088.2639	46.832683	47.699653	46.258562
16.3500	16.3550	52	4	1765.9185	203.87171	1087.3241	46.734179	47.597519	46.158157
16.3550	16.3600	46	3	1765.4278	203.81499	1086.3947	46.635890	47.497042	46.058699
16.3600	16.3650	42	3	1764.9862	203.76402	1085.5004	46.538223	47.402202	45.962408
16.3650	16.3700	41	5	1764.5445	203.71303	1084.6057	46.440518	47.307326	45.866080
16.3700	16.3750	36	2	1764.1053	203.66231	1083.6867	46.343153	47.211960	45.769503
16.3750	16.3800	29	3	1763.6671	203.61169	1082.7583	46.245904	47.116392	45.672818
16.3800	16.3850	33	6	1763.2289	203.56103	1081.8318	46.148724	47.020870	45.576836
16.3850	16.3900	19	5	1762.7909	203.51030	1080.9133	46.051917	46.925635	45.483435
16.3900	16.3950	18	3	1762.3532	203.45959	1079.9952	45.955146	46.830436	45.390069
16.3950	16.4000	21	2	1761.8812	203.40493	1079.0777	45.848736	46.736913	45.294264
16.4000	16.4050	28	5	1761.3959	203.34874	1078.1602	45.738587	46.643998	45.197489
16.4050	16.4100	18	5	1760.8998	203.29135	1077.2398	45.631941	46.549232	45.099977
16.4100	16.4150	16	3	1760.3661	203.22980	1076.3100	45.537523	46.448063	44.999940
16.4150	16.4200	21	6	1759.8324	203.16824	1075.3802	45.443106	46.346893	44.899904
16.4200	16.4250	27	6	1759.2997	203.10669	1074.4610	45.344616	46.245357	44.799977
16.4250	16.4300	35	5	1758.7677	203.04516	1073.5462	45.244616	46.143733	44.700145
16.4300	16.4350	25	4	1758.2357	202.98365	1072.6152	45.144987	46.042022	44.600326
16.4350	16.4400	19	2	1757.7036	202.92214	1071.6274	45.046615	45.939966	44.500514
16.4400	16.4450	24	3	1757.1715	202.86063	1070.6395	44.948242	45.837910	44.400701
16.4450	16.4500	20	4	1756.6325	202.79842	1069.6416	44.853840	45.738216	44.301824
16.4500	16.4550	18	4	1756.0910	202.73595	1068.6398	44.760944	45.639412	44.203291
16.4550	16.4600	31	4	1755.5495	202.67348	1067.6464	44.667482	45.540534	44.104844
16.4600	16.4650	27	4	1755.0094	202.61116	1066.6837	44.572211	45.441569	44.006867
16.4650	16.4700	27	5	1754.4693	202.54884	1065.7211	44.476939	45.342604	43.908889
16.4700	16.4750	24	5	1753.9296	202.48648	1064.7813	44.388801	45.243893	43.810880
16.4750	16.4800	19	2	1753.3902	202.42411	1063.8505	44.303415	45.145294	43.712873
16.4800	16.4850	17	4	1752.8619	202.36304	1062.9339	44.216944	45.047280	43.614944
16.4850	16.4900	23	1	1752.3718	202.30643	1062.0657	44.126581	44.951175	43.517156
16.4900	16.4950	18	2	1751.8814	202.24979	1061.1971	44.036183	44.855034	43.419331
16.4950	16.5000	14	3	1751.4252	202.19701	1060.3313	43.947102	44.758683	43.322941
16.5000	16.5050	26	1	1750.9819	202.14570	1059.4665	43.858513	44.662237	43.227086
16.5050	16.5100	13	4	1750.5389	202.09442	1058.6072	43.769870	44.565784	43.131365
16.5100	16.5150	22	4	1750.0974	202.04328	1057.7683	43.681153	44.469434	43.036237
16.5150	16.5200	16	3	1749.6561	201.99216	1056.9298	43.592470	44.373120	42.941145
16.5200	16.5250	20	3	1749.2149	201.94126	1056.0795	43.500925	44.278233	42.848278
16.5250	16.5300	16	4	1748.7737	201.89043	1055.2244	43.408247	44.183857	42.756229
16.5300	16.5350	20	3	1748.3248	201.83871	1054.3649	43.315913	44.089322	42.664264
16.5350	16.5400	13	1	1747.8499	201.78393	1053.4901	43.224817	43.994271	42.572623
16.5400	16.5450	15	6	1747.3750	201.72916	1052.6153	43.133722	43.899220	42.480982
16.5450	16.5500	10	5	1746.9009	201.67429	1051.7433	43.040728	43.804479	42.390322
16.5500	16.5550	14	5	1746.4274	201.61942	1050.8727	42.947055	43.709908	42.300087
16.5550	16.5600	14	2	1745.9541	201.56458	1050.0000	42.854390	43.615154	42.209736
16.5600	16.5650	16	5	1745.4816	201.50986	1049.1191	42.765215	43.519726	42.118951
16.5650	16.5700	22	1	1745.0090	201.45514	1048.2383	42.676040	43.424298	42.028165
16.5700	16.5750	15	3	1744.5374	201.40063	1047.3639	42.586119	43.328114	41.934629
16.5750	16.5800	16	3	1744.0662	201.34620	1046.4919	42.495898	43.231625	41.840026
16.5800	16.5850	14	4	1743.5960	201.29186	1045.4867	42.404733	43.135367	41.745717
16.5850	16.5900	13	2	1743.1305	201.23793	1044.0186	42.310426	43.040072	41.652596
16.5900	16.5950	22	1	1742.6650	201.18401	1042.5505	42.216120	42.944778	41.559476
16.5950	16.6000	20	6	1742.2005	201.13024	1041.5166	42.123186	42.850955	41.466133
16.6000	16.6050	24	5	1741.7366	201.07654	1040.6496	42.030794	42.757710	41.372719
16.6050	16.6100	29	5	1741.2734	201.02291	1039.7803	41.938208	42.664650	41.279725
16.6100	16.6150	30	4	1740.8120	200.96946	1038.9014	41.844822	42.572109	41.188071
16.6150	16.6200	24	4	1740.3503	200.91598	1038.0222	41.751400	42.479532	41.096383
16.6200	16.6250	30	6	1739.9077	200.86449	1037.1467	41.660051	42.387227	41.006515
16.6250	16.6300	26	6	1739.4723	200.81376	1036.2725	41.569483	42.295012	40.917332
16.6300	16.6350	22	4	1739.0372	200.76311	1035.3979	41.478861	42.202988	40.827859
16.6350	16.6400	36	2	1738.6042	200.71284	1034.5235	41.388171	42.111752	40.737493
16.6400	16.6450	26	3	1738.1713	200.66259	1033.6494	41.297514	42.020552	40.647161
16.6450	16.6500	18	4	1737.7390	200.61433	1032.7525	41.208042	41.928925	40.557162
16.6500	16.6550	19	4	1737.3067	200.56683	1031.8464	41.118989	41.837100	40.467255
16.6550	16.6600	23	1	1736.8749	200.52224	1030.9404	41.030024	41.745434	40.377373
16.6600	16.6650	21	7	1736.4450	200.48783	1030.0349	40.941394	41.654356	40.287610
16.6650	16.6700	27	7	1736.0150	200.45343	1029.1293	40.852764	41.563278	40.197846
16.6700	16.6750	33	4	1735.5920	200.42349	1028.1908	40.761779	41.472267	40.108896
16.6750	16.6800	34	6	1735.1718	200.39529	1027.2400	40.669938	41.381329	40.020305
16.6800	16.6850	30	4	1734.7616	200.36502	1026.2951	40.578572	41.290501	39.932169
16.6850	16.6900	23	5	1734.3858	200.32749	1025.3704	40.488840	41.200026	39.845588
16.6900	16.6950	39	7	1734.0101	200.28996	1024.4457	40.399107	41.109551	39.759007
16.6950	16.7000	38	4	1733.6119	200.24263	1023.5319	40.306489	41.017148	39.669634
16.7000	16.7050	34	6	1733.2051	200.19154	1022.6221	40.212751	40.923992	39.579177
16.7050	16.7100	45	6	1732.8009	200.13901	1021.7253	40.118969	40.830365	39.488326
16.7100	16.7150	49	6	1732.4061	200.08150	1020.8758	40.025196	40.735252	39.396253
16.7150	16.7200	56	9	1732.0114	200.02400	1020.0264	39.931423	40.640139	39.304181
16.7200	16.7250	78	5	1731.5993	199.96314	1019.1996	39.837841	40.546336	39.212125
16.7250	16.7300	73	8	1731.1805	199.90099	1018.3817	39.744345	40.453051	39.120089
16.7300	16.7350	89	9	1730.7506	199.83948	1017.5605	39.650970	40.359712	39.027940
16.7350	16.7400	126	10	1730.2810	199.78014	1016.7271	39.557892	40.266058	38.935272
16.7400	16.7450	200	19	1729.8113	199.72077	1015.8933	39.464778	40.172369	38.842569
16.7450	16.7500	219	19	1729.3241	199.65992	1015.0245	39.372098	40.080070	38.750553
16.7500	16.7550	320	19	1728.8301	199.59850	1014.1422	39.279571	39.988290	38.658789
16.7550	16.7600	409	23	1728.3120	199.53444	1013.2470	39.187035	39.896549	38.566912
16.7600	16.7650	563	31	1727.7102	199.46126	1012.3081	39.094587	39.805063	38.474762
16.7650	16.7700	565	29	1727.1086	199.38811	1011.3696	39.002175	39.713611	38.382647
16.7700	16.7750	625	40	1726.5154	199.31673	1010.4423	38.909968	39.621422	38.292687
16.7750	16.7800	643	40	1725.9253	199.24600	1009.5190	38.817804	39.528913	38.203522
16.7800	16.7850	582	47	1725.3324	199.17551	1008.6013	38.725960	39.436625	38.114976
16.7850	16.7900	555	43	1724.7297	199.10589	1007.7037	38.635267	39.345146	38.028629
16.7900	16.7950	513	33	1724.1270	199.03628	1006.8061	38.544575	39.253667	37.942283
16.7950	16.8000	413	24	1723.5961	198.97228	1005.9360	38.455680	39.162847	37.857044
16.8000	16.8050	301	25	1723.0930	198.91048	1005.0769	38.367522	39.072327	37.772277
16.8050	16.8100	280	28	1722.6178	198.85238	1004.2230	38.279798	38.982428	37.687927
16.8100	16.8150	239	18	1722.2399	198.80717	1003.3873	38.193559	38.894668	37.605007
16.8150	16.8200	170	13	1721.8620	198.76197	1002.5516	38.107319	38.806909	37.522088
16.8200	16.8250	134	13	1721.4775	198.71509	1001.6981	38.021887	38.720972	37.437231
16.8250	16.8300	104	6	1721.0904	198.66757	1000.8376	37.936754	38.635723	37.351618
16.8300	16.8350	95	9	1720.7038	198.62148	999.97085	37.851513	38.550386	37.265859
16.8350	16.8400	76	13	1720.3198	198.58050	999.08370	37.766043	38.464885	37.179734
16.8400	16.8450	57	9	1719.9357	198.53952	998.19655	37.680574	38.379385	37.093609
16.8450	16.8500	55	9	1719.5572	198.49478	997.31722	37.595201	38.294296	37.009571
16.8500	16.8550	54	8	1719.1807	198.44861	996.44103	37.509878	38.209378	36.926348
16.8550	16.8600	39	5	1718.8020	198.40266	995.56140	37.425077	38.124901	36.842979
16.8600	16.8650	57	6	1718.4147	198.35738	994.66858	37.341987	38.041852	36.758987
16.8650	16.8700	40	8	1718.0273	198.31209	993.77542	37.258866	37.958772	36.674962
16.8700	16.8750	31	9	1717.6539	198.26791	992.90004	37.175908	37.876673	36.593104
16.8750	16.8800	32	5	1717.2860	198.22415	992.03137	37.093001	37.794938	36.512067
16.8800	16.8850	29	12	1716.9166	198.18017	991.16499	37.010066	37.712829	36.431264
16.8850	16.8900	26	13	1716.5429	198.13547	990.30781	36.927143	37.629520	36.351390
16.8900	16.8950	20	10	1716.1693	198.09079	989.45096	36.844252	37.546242	36.271547
16.8950	16.9000	25	6	1715.7816	198.04444	988.57765	36.761680	37.463544	36.193306
16.9000	16.9050	31	10	1715.3883	197.99742	987.69768	36.679200	37.381037	36.115652
16.9050	16.9100	39	6	1714.9979	197.95097	986.80853	36.596992	37.298507	36.037203
16.9100	16.9150	22	6	1714.6180	197.90647	985.88765	36.515766	37.215931	35.955999
16.9150	16.9200	35	7	1714.2380	197.86198	984.96678	36.434540	37.133355	35.874796
16.9200	16.9250	28	13	1713.8517	197.81885	984.06213	36.354109	37.050049	35.791632
16.9250	16.9300	28	14	1713.4630	197.77626	983.16421	36.274026	36.966505	35.707758
16.9300	16.9350	31	5	1713.0782	197.73365	982.27050	36.194045	36.883908	35.624374
16.9350	16.9400	37	3	1712.7067	197.69093	981.39122	36.114387	36.804601	35.542682
16.9400	16.9450	36	13	1712.3353	197.64822	980.51195	36.034730	36.725294	35.460990
16.9450	16.9500	31	11	1711.9806	197.60681	979.62421	35.955233	36.647267	35.382431
16.9500	16.9550	31	13	1711.6324	197.56590	978.73307	35.875787	36.569720	35.305065
16.9550	16.9600	45	10	1711.2831	197.52471	977.83794	35.796791	36.491911	35.228257
16.9600	16.9650	45	7	1710.9307	197.48259	976.93032	35.719506	36.413317	35.153531
16.9650	16.9700	57	10	1710.5782	197.44047	976.02270	35.642222	36.334723	35.078805
16.9700	16.9750	51	7	1710.2303	197.39963	975.11900	35.563583	36.255567	35.004077
16.9750	16.9800	46	10	1709.8842	197.35929	974.21693	35.484435	36.176206	34.929361
16.9800	16.9850	58	7	1709.5331	197.31836	973.31402	35.405561	36.097008	34.854718
16.9850	16.9900	72	8	1709.1640	197.27529	972.40696	35.327542	36.018279	34.780234
16.9900	16.9950	69	7	1708.7947	197.23221	971.49955	35.249492	35.939520	34.705721
16.9950	17.0000	96	13	1708.3708	197.18396	970.13758	35.119420	35.806269	34.578752
17.0000	17.0050	118	10	1707.9258	197.13371	968.60051	34.969312	35.652032	34.431581
17.0050	17.0100	132	15	1707.4756	197.08226	967.02348	34.813958	35.492912	34.279435
17.0100	17.0150	157	16	1707.0083	197.02666	965.30840	34.640409	35.316882	34.110048
17.0150	17.0200	185	18	1706.5411	196.97108	963.59397	34.466927	35.140919	33.940724
17.0200	17.0250	288	26	1706.1180	196.92161	962.37322	34.347934	35.020329	33.823171
17.0250	17.0300	369	27	1705.7116	196.87449	961.34225	34.249896	34.921031	33.725523
17.0300	17.0350	525	37	1705.3128	196.82830	960.30440	34.150933	34.821017	33.626823
17.0350	17.0400	650	50	1704.9401	196.78540	959.24282	34.048772	34.718529	33.524479
17.0400	17.0450	739	46	1704.5674	196.74249	958.18124	33.946610	34.616041	33.422134
17.0450	17.0500	763	58	1704.2422	196.70442	957.54059	33.891054	34.561022	33.363811
17.0500	17.0550	763	51	1703.9355	196.66823	957.06242	33.853480	34.524316	33.322476
17.0550	17.0600	786	65	1703.6212	196.63092	956.53302	33.809147	34.481043	33.272256
17.0600	17.0650	721	56	1703.2800	196.58969	955.82366	33.741080	34.414706	33.190837
17.0650	17.0700	654	52	1702.9388	196.54847	955.11430	33.673014	34.348369	33.109418
17.0700	17.0750	699	41	1702.6662	196.51628	955.08051	33.676753	34.353376	33.107736
17.0750	17.0800	819	56	1702.4200	196.48757	955.30663	33.708118	34.385831	33.136731
17.0800	17.0850	860	59	1702.1566	196.45708	955.47412	33.733598	34.412348	33.160688
17.0850	17.0900	823	57	1701.8337	196.42038	955.43568	33.738393	34.417989	33.166933
17.0900	17.0950	823	41	1701.5107	196.38369	955.39724	33.743187	34.423629	33.173178
17.0950	17.1000	797	46	1701.1808	196.34440	955.28504	33.740286	34.421025	33.173267
17.1000	17.1050	794	60	1700.8482	196.30411	955.14440	33.734417	34.415239	33.170981
17.1050	17.1100	665	40	1700.4980	196.24964	954.83154	33.710755	34.391215	33.151117
17.1100	17.1150	590	50	1700.0851	196.14539	953.91447	33.624691	34.303216	33.069600
17.1150	17.1200	510	29	1699.6722	196.04110	952.99705	33.538593	34.215184	32.988053
17.1200	17.1250	423	28	1699.2723	195.97778	952.18006	33.462241	34.133828	32.917471
17.1250	17.1300	360	28	1698.8773	195.93025	951.40163	33.389632	34.055032	32.851102
17.1300	17.1350	281	17	1698.3944	195.88519	950.75418	33.331350	33.992180	32.798017
17.1350	17.1400	219	25	1697.6033	195.84891	950.56747	33.323452	33.985395	32.791644
17.1400	17.1450	145	9	1696.8126	195.81264	950.38082	33.315557	33.978612	32.785273
17.1450	17.1500	150	17	1696.4331	195.78241	950.66526	33.356716	34.021184	32.826059
17.1500	17.1550	105	12	1696.2122	195.75450	951.13153	33.416815	34.082812	32.885054
17.1550	17.1600	86	8	1695.9975	195.72813	951.67603	33.484367	34.153067	32.952001
17.1600	17.1650	67	17	1695.8051	195.70721	952.49450	33.578020	34.253537	33.046805
17.1650	17.1700	71	7	1695.6126	195.68629	953.31297	33.671673	34.354007	33.141608
17.1700	17.1750	52	7	1695.2741	195.64613	952.93900	33.639115	34.326266	33.111743
17.1750	17.1800	44	9	1694.8795	195.59858	952.10522	33.557884	34.249079	33.033800
17.1800	17.1850	54	8	1694.4551	195.54793	951.27694	33.478264	34.173631	32.957883
17.1850	17.1900	44	7	1693.9259	195.48638	950.46770	33.404282	34.104275	32.889067
17.1900	17.1950	52	4	1693.3966	195.42482	949.65845	33.330300	34.034918	32.820250
17.1950	17.2000	42	10	1692.8160	195.35878	948.40207	33.214519	33.920202	32.707997
17.2000	17.2050	47	15	1692.2155	195.29100	946.97331	33.082623	33.788001	32.578999
17.2050	17.2100	29	6	1691.6597	195.22743	945.88529	32.987022	33.691815	32.484845
17.2100	17.2150	32	3	1691.2618	195.17874	945.99501	33.018967	33.722195	32.513140
17.2150	17.2200	33	8	1690.8638	195.13005	946.10473	33.050912	33.752574	32.541435
17.2200	17.2250	46	5	1690.4391	195.08083	945.91038	33.051517	33.749177	32.538817
17.2250	17.2300	36	10	1690.0041	195.03140	945.59859	33.040017	33.732733	32.524257
17.2300	17.2350	25	8	1689.5780	194.98226	945.34716	33.034605	33.722736	32.515900
17.2350	17.2400	42	5	1689.1823	194.93405	945.30727	33.050558	33.735357	32.529310
17.2400	17.2450	19	6	1688.7864	194.88583	945.26737	33.066517	33.747983	32.542725
17.2450	17.2500	29	5	1688.3695	194.83602	945.03483	33.061841	33.741990	32.537476
17.2500	17.2550	13	4	1687.9444	194.78559	944.72798	33.049209	33.728818	32.525031
17.2550	17.2600	18	5	1687.4893	194.73232	944.20866	33.013870	33.692604	32.490512
17.2600	17.2650	20	6	1686.9294	194.66914	942.94327	32.898771	33.575455	32.378452
17.2650	17.2700	12	1	1686.3696	194.60598	941.67836	32.783715	33.458350	32.266435
17.2700	17.2750	21	7	1685.8022	194.54103	940.84238	32.714923	33.387916	32.199827
17.2750	17.2800	23	6	1685.2317	194.47536	940.17164	32.663961	33.335470	32.150721
17.2800	17.2850	22	4	1684.6536	194.40892	939.44592	32.611029	33.277965	32.096669
17.2850	17.2900	21	4	1684.0497	194.33976	938.52757	32.551205	33.202735	32.025290
17.2900	17.2950	24	2	1683.4458	194.27059	937.60923	32.491381	33.127505	31.953911
17.2950	17.3000	19	3	1682.8353	194.19703	937.13070	32.466571	33.097624	31.926154
17.3000	17.3050	18	3	1682.2226	194.12181	936.82223	32.455293	33.085268	31.915255
17.3050	17.3100	25	5	1681.5874	194.04519	936.50127	32.442289	33.071694	31.902838
17.3100	17.3150	24	8	1680.8727	193.96367	936.13629	32.423206	33.053826	31.885076
17.3150	17.3200	25	5	1680.1579	193.88215	935.77130	32.404123	33.035957	31.867315
17.3200	17.3250	19	4	1679.4863	193.80218	935.58698	32.405205	33.038095	31.867235
17.3250	17.3300	17	7	1678.8312	193.72280	935.47227	32.414059	33.047944	31.873970
17.3300	17.3350	30	2	1678.1822	193.64471	935.40679	32.427504	33.062267	31.885065
17.3350	17.3400	24	2	1677.5558	193.57128	935.51444	32.457065	33.092288	31.911464
17.3400	17.3450	15	6	1676.9293	193.49786	935.62209	32.486626	33.122310	31.937863
17.3450	17.3500	26	7	1676.2906	193.42395	935.76084	32.515382	33.152204	31.963915
17.3500	17.3550	27	3	1675.6473	193.34986	935.91159	32.543823	33.182043	31.989829
17.3550	17.3600	22	2	1674.9890	193.27387	935.89211	32.554647	33.194128	31.998363
17.3600	17.3650	31	6	1674.2772	193.19112	935.27461	32.503601	33.143858	31.945862
17.3650	17.3700	34	8	1673.5652	193.10834	934.65687	32.452536	33.093569	31.893340
17.3700	17.3750	38	5	1672.7770	193.01645	933.45144	32.341927	32.983464	31.784109
17.3750	17.3800	34	4	1671.9592	192.92102	932.01897	32.208315	32.850251	31.652970
17.3800	17.3850	31	4	1671.1470	192.82659	930.65644	32.082868	32.724706	31.529558
17.3850	17.3900	39	2	1670.3551	192.73576	929.54211	31.986348	32.626337	31.433532
17.3900	17.3950	24	4	1669.5636	192.64496	928.42821	31.889864	32.528006	31.337542
17.3950	17.4000	37	1	1668.8970	192.56824	927.59871	31.825415	32.462522	31.274506
17.4000	17.4050	42	3	1668.2783	192.49694	926.87887	31.773327	32.409715	31.224187
17.4050	17.4100	34	4	1667.6872	192.42897	926.21541	31.728227	32.363818	31.180708
17.4100	17.4150	36	2	1667.1930	192.37277	925.75028	31.707689	32.342221	31.161275
17.4150	17.4200	31	8	1666.6988	192.31656	925.28515	31.687152	32.320623	31.141842
17.4200	17.4250	34	1	1666.1909	192.25533	924.85023	31.669830	32.301795	31.126304
17.4250	17.4300	25	6	1665.6780	192.19218	924.42720	31.653760	32.284046	31.112280
17.4300	17.4350	36	6	1665.1535	192.12853	923.87875	31.624797	32.253331	31.085475
17.4350	17.4400	29	4	1664.5877	192.06307	922.88821	31.550408	32.176926	31.013638
17.4400	17.4450	24	4	1664.0219	191.99762	921.89767	31.476018	32.100521	30.941802
17.4450	17.4500	31	3	1663.3660	191.92212	921.05837	31.422127	32.045141	30.889423
17.4500	17.4550	23	3	1662.6751	191.84273	920.27732	31.376141	31.997869	30.844547
17.4550	17.4600	32	4	1661.8752	191.75076	919.36039	31.326906	31.947597	30.796338
17.4600	17.4650	42	2	1660.6926	191.61466	917.96675	31.266324	31.886855	30.736477
17.4650	17.4700	29	4	1659.5100	191.47857	916.57312	31.205743	31.826114	30.676615
17.4700	17.4750	29	4	1658.2699	191.33672	914.93691	31.100722	31.719272	30.571870
17.4750	17.4800	34	2	1657.0077	191.19268	913.20707	30.978520	31.594608	30.449773
17.4800	17.4850	36	4	1655.7398	191.04797	911.45578	30.853821	31.467626	30.325452
17.4850	17.4900	38	9	1654.4501	190.90075	909.62674	30.720174	31.332326	30.193142
17.4900	17.4950	36	5	1653.1599	190.75348	907.79701	30.586476	31.196974	30.060781
17.4950	17.5000	39	4	1651.9094	190.60736	906.16257	30.470439	31.079388	29.946200
17.5000	17.5050	36	4	1650.6742	190.46165	904.60335	30.361208	30.968649	29.838473
17.5050	17.5100	34	4	1649.6932	190.34641	903.22465	30.259705	30.866033	29.738557
17.5100	17.5150	36	9	1649.6095	190.33864	902.48377	30.185562	30.792170	29.666301
17.5150	17.5200	41	5	1649.5258	190.33086	901.74318	30.111448	30.718336	29.594072
17.5200	17.5250	20	4	1650.0941	190.39640	901.11694	30.025485	30.631840	29.509611
17.5250	17.5300	26	1	1650.9149	190.49030	900.53467	29.934908	30.540414	29.420387
17.5300	17.5350	29	6	1651.7527	190.58816	900.06691	29.855471	30.460108	29.342048
17.5350	17.5400	22	4	1652.6504	190.69988	900.00170	29.815210	30.418911	29.301993
17.5400	17.5450	30	3	1653.5481	190.81160	899.93648	29.774948	30.377714	29.261938
17.5450	17.5500	26	9	1654.3310	190.89939	899.07352	29.656411	30.257457	29.144268
17.5500	17.5550	22	5	1655.0691	190.97788	897.90264	29.507677	30.106703	28.996656
17.5550	17.5600	23	3	1655.5418	191.02590	896.60115	29.356630	29.953932	28.847272
17.5600	17.5650	26	3	1655.0790	190.96650	894.83868	29.197369	29.793993	28.691582
17.5650	17.5700	26	1	1654.6161	190.90711	893.07621	29.038108	29.634053	28.535892
17.5700	17.5750	29	6	1654.1212	190.83874	891.67537	28.917237	29.513387	28.417630
17.5750	17.5800	16	2	1653.6138	190.76691	890.41398	28.811175	29.407870	28.313805
17.5800	17.5850	30	2	1653.1054	190.69351	889.14395	28.703831	29.301086	28.208911
17.5850	17.5900	46	4	1652.5947	190.61474	887.84565	28.592160	29.190027	28.100437
17.5900	17.5950	52	3	1652.0840	190.53598	886.54735	28.480489	29.078969	27.991962
17.5950	17.6000	72	3	1651.5646	190.46014	885.42920	28.384614	28.983229	27.898676
17.6000	17.6050	89	4	1651.0418	190.38545	884.38099	28.294871	28.893435	27.811286
17.6050	17.6100	110	3	1650.5077	190.31144	883.41426	28.213174	28.811810	27.731867
17.6100	17.6150	125	11	1649.9327	190.23971	882.73314	28.159694	28.758835	27.680402
17.6150	17.6200	135	6	1649.3576	190.16795	882.05175	28.106194	28.705839	27.628918
17.6200	17.6250	120	10	1648.8411	190.10518	881.18070	28.033219	28.632864	27.558236
17.6250	17.6300	125	4	1648.3472	190.04589	880.23619	27.952704	28.552154	27.480122
17.6300	17.6350	109	7	1647.8644	189.98873	879.32202	27.875342	28.474207	27.404715
17.6350	17.6400	121	5	1647.4214	189.93919	878.51610	27.809210	28.406117	27.338956
17.6400	17.6450	86	4	1646.9786	189.88967	877.71050	27.743104	28.338053	27.273222
17.6450	17.6500	84	4	1646.5242	189.83840	876.81752	27.668300	28.261956	27.199518
17.6500	17.6550	57	1	1646.0651	189.78643	875.89035	27.590099	28.182719	27.122699
17.6550	17.6600	61	5	1645.6084	189.73429	874.88428	27.504198	28.095689	27.038375
17.6600	17.6650	53	3	1645.1605	189.68159	873.60075	27.391226	27.981257	26.927658
17.6650	17.6700	35	3	1644.7125	189.62888	872.31722	27.278253	27.866824	26.816941
17.6700	17.6750	36	3	1644.1833	189.56852	870.58029	27.123056	27.710389	26.664743
17.6750	17.6800	27	1	1643.6230	189.50522	868.66867	26.951588	27.537767	26.496560
17.6800	17.6850	26	1	1643.0481	189.44015	866.63658	26.769788	27.354639	26.318012
17.6850	17.6900	20	5	1642.4219	189.36877	864.17801	26.551410	27.134312	26.102772
17.6900	17.6950	26	5	1641.7958	189.29739	861.71945	26.333032	26.913985	25.887532
17.6950	17.7000	18	0	1640.8998	189.19593	858.44856	26.049824	26.627400	25.607857
17.7000	17.7050	26	4	1639.8994	189.08282	854.86300	25.741501	26.315146	25.303220
17.7050	17.7100	22	4	1638.8320	188.96176	851.04552	25.415356	25.985013	24.981299
17.7100	17.7150	28	2	1637.5302	188.81283	846.41652	25.026908	25.592376	24.598965
17.7150	17.7200	20	0	1636.2283	188.66390	841.78751	24.638461	25.199738	24.216632
17.7200	17.7250	29	2	1634.9756	188.51932	837.61996	24.296674	24.854108	23.879792
17.7250	17.7300	19	5	1633.7422	188.37645	833.63208	23.973043	24.526768	23.560654
17.7300	17.7350	21	1	1632.5274	188.23637	829.79618	23.663399	24.213641	23.255489
17.7350	17.7400	26	3	1631.3769	188.10593	826.49134	23.402688	23.950238	22.999214
17.7400	17.7450	25	3	1630.2259	187.97545	823.18524	23.141878	23.686735	22.742841
17.7450	17.7500	24	2	1629.1313	187.85013	820.30012	22.919229	23.461097	22.523960
17.7500	17.7550	24	4	1628.0582	187.72678	817.57755	22.711320	23.250083	22.319560
17.7550	17.7600	20	4	1627.0026	187.60554	814.97072	22.513129	23.048884	22.124816
17.7600	17.7650	38	3	1626.0096	187.49188	812.77602	22.349515	22.882608	21.964424
17.7650	17.7700	27	6	1625.0170	187.37826	810.58216	22.185963	22.716397	21.804093
17.7700	17.7750	29	4	1623.9704	187.25853	807.37314	21.938726	22.465450	21.561111
17.7750	17.7800	35	5	1622.9025	187.13639	803.76932	21.658950	22.181557	21.285994
17.7800	17.7850	24	2	1621.7822	187.00863	799.79203	21.351254	21.869245	20.983373
17.7850	17.7900	30	3	1620.4774	186.86116	794.49884	20.945186	21.456806	20.583847
17.7900	17.7950	24	2	1619.1727	186.71369	789.20565	20.539118	21.044367	20.184322
17.7950	17.8000	26	2	1617.9618	186.57660	784.05631	20.151656	20.650950	19.802552
17.8000	17.8050	27	2	1616.7880	186.44360	778.96548	19.771615	20.265118	19.427869
17.8050	17.8100	18	3	1615.6295	186.31255	773.80820	19.389082	19.876750	19.050699
17.8100	17.8150	21	1	1614.5246	186.18829	768.41405	18.997593	19.479264	18.664591
17.8150	17.8200	21	2	1613.4197	186.06404	763.01989	18.606105	19.081779	18.278482
17.8200	17.8250	20	3	1612.4737	185.95612	758.67606	18.297702	18.769244	17.975085
17.8250	17.8300	14	2	1611.5891	185.85451	754.73818	18.021415	18.489546	17.703660
17.8300	17.8350	17	1	1610.7539	185.75875	751.15655	17.771389	18.236393	17.457990
17.8350	17.8400	13	2	1610.0948	185.68380	748.83909	17.614519	18.077406	17.303684
17.8400	17.8450	13	5	1609.4357	185.60886	746.52163	17.457650	17.918420	17.149379
17.8450	17.8500	10	2	1608.9964	185.55837	745.57641	17.397425	17.856542	17.089666
17.8500	17.8550	9	2	1608.6424	185.51738	745.16402	17.374723	17.832368	17.066680
17.8550	17.8600	11	2	1608.3512	185.48337	745.15841	17.380283	17.836946	17.071651
17.8600	17.8650	8	0	1608.2818	185.47400	746.59005	17.485702	17.943122	17.175406
17.8650	17.8700	9	1	1608.2123	185.46463	748.02225	17.591162	18.049338	17.279202
17.8700	17.8750	11	1	1608.1387	185.45441	749.54110	17.704713	18.163447	17.390483
17.8750	17.8800	14	1	1608.0635	185.44387	751.09377	17.821419	18.280633	17.504683
17.8800	17.8850	8	1	1607.9006	185.42390	751.76661	17.874567	18.333517	17.556593
17.8850	17.8900	10	2	1607.4276	185.37058	749.32598	17.702806	18.158852	17.388072
17.8900	17.8950	11	0	1606.9548	185.31727	746.88629	17.531111	17.984255	17.219616
17.8950	17.9000	12	1	1606.3664	185.25136	743.20826	17.274311	17.722835	16.967290
17.9000	17.9050	11	3	1605.7328	185.18054	739.04811	16.984377	17.427610	16.682310
17.9050	17.9100	7	0	1605.1764	185.11824	735.42824	16.732312	17.170910	16.434406
17.9100	17.9150	9	2	1604.8925	185.08603	733.71696	16.614023	17.050301	16.317476
17.9150	17.9200	7	1	1604.6085	185.05383	732.00567	16.495734	16.929692	16.200546
17.9200	17.9250	5	2	1604.8478	185.07957	733.52819	16.596749	17.032261	16.298665
17.9250	17.9300	7	2	1605.2900	185.12779	736.30438	16.782784	17.221353	16.480154
17.9300	17.9350	11	1	1605.7628	185.17926	740.00402	17.037878	17.480451	16.728394
17.9350	17.9400	13	2	1606.3439	185.24228	746.97454	17.537572	17.987503	17.213054
17.9400	17.9450	14	2	1606.9251	185.30530	753.94506	18.037267	18.494556	17.697715
17.9450	17.9500	7	1	1606.7478	185.28194	758.41274	18.376496	18.839312	18.028467
17.9500	17.9550	12	0	1606.2766	185.22511	761.91137	18.653603	19.121239	18.299637
17.9550	17.9600	6	1	1605.6523	185.15140	763.97648	18.824637	19.295475	18.466880
17.9600	17.9650	13	1	1604.4877	185.01812	760.97016	18.620377	19.088701	18.266426
17.9650	17.9700	9	4	1603.3232	184.88484	757.96383	18.416117	18.881927	18.065973
17.9700	17.9750	12	1	1602.1805	184.75555	753.27969	18.087983	18.549154	17.744921
17.9750	17.9800	7	2	1601.0465	184.62783	747.94396	17.711740	18.167448	17.377031
17.9800	17.9850	10	1	1600.0380	184.48185	743.47405	17.398011	17.848911	17.070342
17.9850	17.9900	15	4	1599.4721	184.27105	742.06049	17.304972	17.753379	16.979704
17.9900	17.9950	7	1	1598.9059	184.06017	740.64639	17.211897	17.657810	16.889033
17.9950	18.0000	9	2	1599.1306	184.04327	745.22262	17.545290	17.994692	17.217094
